{
  "_schema_version": 1,
  "_source": "CDISC Library (SDTMIG 3.3/3.4 + ADaMIG 1.1/1.2)",
  "_fetched": "2026-04-17T10:48:18Z",
  "_igs": ["SDTMIG 3.3", "SDTMIG 3.4", "ADaMIG 1.1", "ADaMIG 1.2"],
  "variables": {
    "STUDYID": {
      "codelist": null,
      "code": null,
      "label": "Study Identifier",
      "igs": [
        "ADaMIG 1.1",
        "ADaMIG 1.2",
        "SDTMIG 3.3",
        "SDTMIG 3.4"
      ],
      "core": {
        "SDTMIG 3.3 Comments": "Req",
        "SDTMIG 3.3 Demographics": "Req",
        "SDTMIG 3.3 Subject Elements": "Req",
        "SDTMIG 3.3 Subject Disease Milestones": "Req",
        "SDTMIG 3.3 Subject Visits": "Req",
        "SDTMIG 3.3 Procedure Agents": "Req",
        "SDTMIG 3.3 Concomitant/Prior Medications": "Req",
        "SDTMIG 3.3 Exposure": "Req",
        "SDTMIG 3.3 Exposure as Collected": "Req",
        "SDTMIG 3.3 Meal Data": "Req",
        "SDTMIG 3.3 Procedures": "Req",
        "SDTMIG 3.3 Substance Use": "Req",
        "SDTMIG 3.3 Adverse Events": "Req",
        "SDTMIG 3.3 Clinical Events": "Req",
        "SDTMIG 3.3 Disposition": "Req",
        "SDTMIG 3.3 Protocol Deviations": "Req",
        "SDTMIG 3.3 Healthcare Encounters": "Req",
        "SDTMIG 3.3 Medical History": "Req",
        "SDTMIG 3.3 Drug Accountability": "Req",
        "SDTMIG 3.3 Death Details": "Req",
        "SDTMIG 3.3 ECG Test Results": "Req",
        "SDTMIG 3.3 Inclusion/Exclusion Criteria Not Met": "Req",
        "SDTMIG 3.3 Immunogenicity Specimen Assessments": "Req",
        "SDTMIG 3.3 Laboratory Test Results": "Req",
        "SDTMIG 3.3 Microbiology Specimen": "Req",
        "SDTMIG 3.3 Microbiology Susceptibility": "Req",
        "SDTMIG 3.3 Microscopic Findings": "Req",
        "SDTMIG 3.3 Morphology": "Req",
        "SDTMIG 3.3 Cardiovascular System Findings": "Req",
        "SDTMIG 3.3 Musculoskeletal System Findings": "Req",
        "SDTMIG 3.3 Nervous System Findings": "Req",
        "SDTMIG 3.3 Ophthalmic Examinations": "Req",
        "SDTMIG 3.3 Reproductive System Findings": "Req",
        "SDTMIG 3.3 Respiratory System Findings": "Req",
        "SDTMIG 3.3 Urinary System Findings": "Req",
        "SDTMIG 3.3 Pharmacokinetics Concentrations": "Req",
        "SDTMIG 3.3 Pharmacokinetics Parameters": "Req",
        "SDTMIG 3.3 Physical Examination": "Req",
        "SDTMIG 3.3 Functional Tests": "Req",
        "SDTMIG 3.3 Questionnaires": "Req",
        "SDTMIG 3.3 Disease Response and Clin Classification": "Req",
        "SDTMIG 3.3 Subject Characteristics": "Req",
        "SDTMIG 3.3 Subject Status": "Req",
        "SDTMIG 3.3 Tumor/Lesion Identification": "Req",
        "SDTMIG 3.3 Tumor/Lesion Results": "Req",
        "SDTMIG 3.3 Vital Signs": "Req",
        "SDTMIG 3.3 Findings About Events or Interventions": "Req",
        "SDTMIG 3.3 Skin Response": "Req",
        "SDTMIG 3.3 Trial Arms": "Req",
        "SDTMIG 3.3 Trial Elements": "Req",
        "SDTMIG 3.3 Trial Visits": "Req",
        "SDTMIG 3.3 Trial Disease Assessments": "Req",
        "SDTMIG 3.3 Trial Disease Milestones": "Req",
        "SDTMIG 3.3 Trial Inclusion/Exclusion Criteria": "Req",
        "SDTMIG 3.3 Trial Summary Information": "Req",
        "SDTMIG 3.3 Related Records": "Req",
        "SDTMIG 3.3 Supplemental Qualifiers for [domain name]": "Req",
        "SDTMIG 3.3 Related Subjects": "Req",
        "SDTMIG 3.3 Non-host Organism Identifiers": "Req",
        "SDTMIG 3.4 Procedure Agents": "Req",
        "SDTMIG 3.4 Concomitant/Prior Medications": "Req",
        "SDTMIG 3.4 Exposure as Collected": "Req",
        "SDTMIG 3.4 Exposure": "Req",
        "SDTMIG 3.4 Meal Data": "Req",
        "SDTMIG 3.4 Procedures": "Req",
        "SDTMIG 3.4 Substance Use": "Req",
        "SDTMIG 3.4 Adverse Events": "Req",
        "SDTMIG 3.4 Biospecimen Events": "Req",
        "SDTMIG 3.4 Clinical Events": "Req",
        "SDTMIG 3.4 Disposition": "Req",
        "SDTMIG 3.4 Protocol Deviations": "Req",
        "SDTMIG 3.4 Healthcare Encounters": "Req",
        "SDTMIG 3.4 Medical History": "Req",
        "SDTMIG 3.4 Biospecimen Findings": "Req",
        "SDTMIG 3.4 Cell Phenotype Findings": "Req",
        "SDTMIG 3.4 Cardiovascular System Findings": "Req",
        "SDTMIG 3.4 Product Accountability": "Req",
        "SDTMIG 3.4 Death Details": "Req",
        "SDTMIG 3.4 ECG Test Results": "Req",
        "SDTMIG 3.4 Functional Tests": "Req",
        "SDTMIG 3.4 Genomics Findings": "Req",
        "SDTMIG 3.4 Inclusion/Exclusion Criteria Not Met": "Req",
        "SDTMIG 3.4 Immunogenicity Specimen Assessments": "Req",
        "SDTMIG 3.4 Laboratory Test Results": "Req",
        "SDTMIG 3.4 Microbiology Specimen": "Req",
        "SDTMIG 3.4 Microscopic Findings": "Req",
        "SDTMIG 3.4 Musculoskeletal System Findings": "Req",
        "SDTMIG 3.4 Microbiology Susceptibility": "Req",
        "SDTMIG 3.4 Nervous System Findings": "Req",
        "SDTMIG 3.4 Ophthalmic Examinations": "Req",
        "SDTMIG 3.4 Pharmacokinetics Concentrations": "Req",
        "SDTMIG 3.4 Physical Examination": "Req",
        "SDTMIG 3.4 Pharmacokinetics Parameters": "Req",
        "SDTMIG 3.4 Questionnaires": "Req",
        "SDTMIG 3.4 Respiratory System Findings": "Req",
        "SDTMIG 3.4 Reproductive System Findings": "Req",
        "SDTMIG 3.4 Disease Response and Clin Classification": "Req",
        "SDTMIG 3.4 Subject Characteristics": "Req",
        "SDTMIG 3.4 Subject Status": "Req",
        "SDTMIG 3.4 Tumor/Lesion Results": "Req",
        "SDTMIG 3.4 Tumor/Lesion Identification": "Req",
        "SDTMIG 3.4 Urinary System Findings": "Req",
        "SDTMIG 3.4 Vital Signs": "Req",
        "SDTMIG 3.4 Findings About Events or Interventions": "Req",
        "SDTMIG 3.4 Skin Response": "Req",
        "SDTMIG 3.4 Comments": "Req",
        "SDTMIG 3.4 Demographics": "Req",
        "SDTMIG 3.4 Subject Elements": "Req",
        "SDTMIG 3.4 Subject Disease Milestones": "Req",
        "SDTMIG 3.4 Subject Visits": "Req",
        "SDTMIG 3.4 Trial Arms": "Req",
        "SDTMIG 3.4 Trial Disease Assessments": "Req",
        "SDTMIG 3.4 Trial Elements": "Req",
        "SDTMIG 3.4 Trial Inclusion/Exclusion Criteria": "Req",
        "SDTMIG 3.4 Trial Disease Milestones": "Req",
        "SDTMIG 3.4 Trial Summary": "Req",
        "SDTMIG 3.4 Trial Visits": "Req",
        "SDTMIG 3.4 Non-host Organism Identifiers": "Req",
        "SDTMIG 3.4 Related Records": "Req",
        "SDTMIG 3.4 Related Specimens": "Req",
        "SDTMIG 3.4 Related Subjects": "Req",
        "SDTMIG 3.4 Supplemental Qualifiers for [domain name]": "Req",
        "ADaMIG 1.1 Subject-Level Analysis Dataset Structure": "Req",
        "ADaMIG 1.1 Basic Data Structure": "Req",
        "ADaMIG 1.2 Subject-Level Analysis Dataset Structure": "Req",
        "ADaMIG 1.2 Basic Data Structure": "Req"
      }
    },
    "DOMAIN": {
      "codelist": null,
      "code": null,
      "label": "Domain Abbreviation",
      "igs": [
        "SDTMIG 3.3",
        "SDTMIG 3.4"
      ],
      "core": {
        "SDTMIG 3.3 Comments": "Req",
        "SDTMIG 3.3 Demographics": "Req",
        "SDTMIG 3.3 Subject Elements": "Req",
        "SDTMIG 3.3 Subject Disease Milestones": "Req",
        "SDTMIG 3.3 Subject Visits": "Req",
        "SDTMIG 3.3 Procedure Agents": "Req",
        "SDTMIG 3.3 Concomitant/Prior Medications": "Req",
        "SDTMIG 3.3 Exposure": "Req",
        "SDTMIG 3.3 Exposure as Collected": "Req",
        "SDTMIG 3.3 Meal Data": "Req",
        "SDTMIG 3.3 Procedures": "Req",
        "SDTMIG 3.3 Substance Use": "Req",
        "SDTMIG 3.3 Adverse Events": "Req",
        "SDTMIG 3.3 Clinical Events": "Req",
        "SDTMIG 3.3 Disposition": "Req",
        "SDTMIG 3.3 Protocol Deviations": "Req",
        "SDTMIG 3.3 Healthcare Encounters": "Req",
        "SDTMIG 3.3 Medical History": "Req",
        "SDTMIG 3.3 Drug Accountability": "Req",
        "SDTMIG 3.3 Death Details": "Req",
        "SDTMIG 3.3 ECG Test Results": "Req",
        "SDTMIG 3.3 Inclusion/Exclusion Criteria Not Met": "Req",
        "SDTMIG 3.3 Immunogenicity Specimen Assessments": "Req",
        "SDTMIG 3.3 Laboratory Test Results": "Req",
        "SDTMIG 3.3 Microbiology Specimen": "Req",
        "SDTMIG 3.3 Microbiology Susceptibility": "Req",
        "SDTMIG 3.3 Microscopic Findings": "Req",
        "SDTMIG 3.3 Morphology": "Req",
        "SDTMIG 3.3 Cardiovascular System Findings": "Req",
        "SDTMIG 3.3 Musculoskeletal System Findings": "Req",
        "SDTMIG 3.3 Nervous System Findings": "Req",
        "SDTMIG 3.3 Ophthalmic Examinations": "Req",
        "SDTMIG 3.3 Reproductive System Findings": "Req",
        "SDTMIG 3.3 Respiratory System Findings": "Req",
        "SDTMIG 3.3 Urinary System Findings": "Req",
        "SDTMIG 3.3 Pharmacokinetics Concentrations": "Req",
        "SDTMIG 3.3 Pharmacokinetics Parameters": "Req",
        "SDTMIG 3.3 Physical Examination": "Req",
        "SDTMIG 3.3 Functional Tests": "Req",
        "SDTMIG 3.3 Questionnaires": "Req",
        "SDTMIG 3.3 Disease Response and Clin Classification": "Req",
        "SDTMIG 3.3 Subject Characteristics": "Req",
        "SDTMIG 3.3 Subject Status": "Req",
        "SDTMIG 3.3 Tumor/Lesion Identification": "Req",
        "SDTMIG 3.3 Tumor/Lesion Results": "Req",
        "SDTMIG 3.3 Vital Signs": "Req",
        "SDTMIG 3.3 Findings About Events or Interventions": "Req",
        "SDTMIG 3.3 Skin Response": "Req",
        "SDTMIG 3.3 Trial Arms": "Req",
        "SDTMIG 3.3 Trial Elements": "Req",
        "SDTMIG 3.3 Trial Visits": "Req",
        "SDTMIG 3.3 Trial Disease Assessments": "Req",
        "SDTMIG 3.3 Trial Disease Milestones": "Req",
        "SDTMIG 3.3 Trial Inclusion/Exclusion Criteria": "Req",
        "SDTMIG 3.3 Trial Summary Information": "Req",
        "SDTMIG 3.3 Non-host Organism Identifiers": "Req",
        "SDTMIG 3.4 Procedure Agents": "Req",
        "SDTMIG 3.4 Concomitant/Prior Medications": "Req",
        "SDTMIG 3.4 Exposure as Collected": "Req",
        "SDTMIG 3.4 Exposure": "Req",
        "SDTMIG 3.4 Meal Data": "Req",
        "SDTMIG 3.4 Procedures": "Req",
        "SDTMIG 3.4 Substance Use": "Req",
        "SDTMIG 3.4 Adverse Events": "Req",
        "SDTMIG 3.4 Biospecimen Events": "Req",
        "SDTMIG 3.4 Clinical Events": "Req",
        "SDTMIG 3.4 Disposition": "Req",
        "SDTMIG 3.4 Protocol Deviations": "Req",
        "SDTMIG 3.4 Healthcare Encounters": "Req",
        "SDTMIG 3.4 Medical History": "Req",
        "SDTMIG 3.4 Biospecimen Findings": "Req",
        "SDTMIG 3.4 Cell Phenotype Findings": "Req",
        "SDTMIG 3.4 Cardiovascular System Findings": "Req",
        "SDTMIG 3.4 Product Accountability": "Req",
        "SDTMIG 3.4 Death Details": "Req",
        "SDTMIG 3.4 ECG Test Results": "Req",
        "SDTMIG 3.4 Functional Tests": "Req",
        "SDTMIG 3.4 Genomics Findings": "Req",
        "SDTMIG 3.4 Inclusion/Exclusion Criteria Not Met": "Req",
        "SDTMIG 3.4 Immunogenicity Specimen Assessments": "Req",
        "SDTMIG 3.4 Laboratory Test Results": "Req",
        "SDTMIG 3.4 Microbiology Specimen": "Req",
        "SDTMIG 3.4 Microscopic Findings": "Req",
        "SDTMIG 3.4 Musculoskeletal System Findings": "Req",
        "SDTMIG 3.4 Microbiology Susceptibility": "Req",
        "SDTMIG 3.4 Nervous System Findings": "Req",
        "SDTMIG 3.4 Ophthalmic Examinations": "Req",
        "SDTMIG 3.4 Pharmacokinetics Concentrations": "Req",
        "SDTMIG 3.4 Physical Examination": "Req",
        "SDTMIG 3.4 Pharmacokinetics Parameters": "Req",
        "SDTMIG 3.4 Questionnaires": "Req",
        "SDTMIG 3.4 Respiratory System Findings": "Req",
        "SDTMIG 3.4 Reproductive System Findings": "Req",
        "SDTMIG 3.4 Disease Response and Clin Classification": "Req",
        "SDTMIG 3.4 Subject Characteristics": "Req",
        "SDTMIG 3.4 Subject Status": "Req",
        "SDTMIG 3.4 Tumor/Lesion Results": "Req",
        "SDTMIG 3.4 Tumor/Lesion Identification": "Req",
        "SDTMIG 3.4 Urinary System Findings": "Req",
        "SDTMIG 3.4 Vital Signs": "Req",
        "SDTMIG 3.4 Findings About Events or Interventions": "Req",
        "SDTMIG 3.4 Skin Response": "Req",
        "SDTMIG 3.4 Comments": "Req",
        "SDTMIG 3.4 Demographics": "Req",
        "SDTMIG 3.4 Subject Elements": "Req",
        "SDTMIG 3.4 Subject Disease Milestones": "Req",
        "SDTMIG 3.4 Subject Visits": "Req",
        "SDTMIG 3.4 Trial Arms": "Req",
        "SDTMIG 3.4 Trial Disease Assessments": "Req",
        "SDTMIG 3.4 Trial Elements": "Req",
        "SDTMIG 3.4 Trial Inclusion/Exclusion Criteria": "Req",
        "SDTMIG 3.4 Trial Disease Milestones": "Req",
        "SDTMIG 3.4 Trial Summary": "Req",
        "SDTMIG 3.4 Trial Visits": "Req",
        "SDTMIG 3.4 Non-host Organism Identifiers": "Req"
      }
    },
    "RDOMAIN": {
      "codelist": "DOMAIN",
      "code": "C66734",
      "label": "Related Domain Abbreviation",
      "igs": [
        "SDTMIG 3.3",
        "SDTMIG 3.4"
      ],
      "core": {
        "SDTMIG 3.3 Comments": "Perm",
        "SDTMIG 3.3 Related Records": "Req",
        "SDTMIG 3.3 Supplemental Qualifiers for [domain name]": "Req",
        "SDTMIG 3.4 Comments": "Perm",
        "SDTMIG 3.4 Related Records": "Req",
        "SDTMIG 3.4 Supplemental Qualifiers for [domain name]": "Req"
      }
    },
    "USUBJID": {
      "codelist": null,
      "code": null,
      "label": "Unique Subject Identifier",
      "igs": [
        "ADaMIG 1.1",
        "ADaMIG 1.2",
        "SDTMIG 3.3",
        "SDTMIG 3.4"
      ],
      "core": {
        "SDTMIG 3.3 Comments": "Req",
        "SDTMIG 3.3 Demographics": "Req",
        "SDTMIG 3.3 Subject Elements": "Req",
        "SDTMIG 3.3 Subject Disease Milestones": "Req",
        "SDTMIG 3.3 Subject Visits": "Req",
        "SDTMIG 3.3 Procedure Agents": "Req",
        "SDTMIG 3.3 Concomitant/Prior Medications": "Req",
        "SDTMIG 3.3 Exposure": "Req",
        "SDTMIG 3.3 Exposure as Collected": "Req",
        "SDTMIG 3.3 Meal Data": "Req",
        "SDTMIG 3.3 Procedures": "Req",
        "SDTMIG 3.3 Substance Use": "Req",
        "SDTMIG 3.3 Adverse Events": "Req",
        "SDTMIG 3.3 Clinical Events": "Req",
        "SDTMIG 3.3 Disposition": "Req",
        "SDTMIG 3.3 Protocol Deviations": "Req",
        "SDTMIG 3.3 Healthcare Encounters": "Req",
        "SDTMIG 3.3 Medical History": "Req",
        "SDTMIG 3.3 Drug Accountability": "Req",
        "SDTMIG 3.3 Death Details": "Req",
        "SDTMIG 3.3 ECG Test Results": "Req",
        "SDTMIG 3.3 Inclusion/Exclusion Criteria Not Met": "Req",
        "SDTMIG 3.3 Immunogenicity Specimen Assessments": "Req",
        "SDTMIG 3.3 Laboratory Test Results": "Req",
        "SDTMIG 3.3 Microbiology Specimen": "Req",
        "SDTMIG 3.3 Microbiology Susceptibility": "Req",
        "SDTMIG 3.3 Microscopic Findings": "Req",
        "SDTMIG 3.3 Morphology": "Req",
        "SDTMIG 3.3 Cardiovascular System Findings": "Req",
        "SDTMIG 3.3 Musculoskeletal System Findings": "Req",
        "SDTMIG 3.3 Nervous System Findings": "Req",
        "SDTMIG 3.3 Ophthalmic Examinations": "Req",
        "SDTMIG 3.3 Reproductive System Findings": "Req",
        "SDTMIG 3.3 Respiratory System Findings": "Req",
        "SDTMIG 3.3 Urinary System Findings": "Req",
        "SDTMIG 3.3 Pharmacokinetics Concentrations": "Req",
        "SDTMIG 3.3 Pharmacokinetics Parameters": "Req",
        "SDTMIG 3.3 Physical Examination": "Req",
        "SDTMIG 3.3 Functional Tests": "Req",
        "SDTMIG 3.3 Questionnaires": "Req",
        "SDTMIG 3.3 Disease Response and Clin Classification": "Req",
        "SDTMIG 3.3 Subject Characteristics": "Req",
        "SDTMIG 3.3 Subject Status": "Req",
        "SDTMIG 3.3 Tumor/Lesion Identification": "Req",
        "SDTMIG 3.3 Tumor/Lesion Results": "Req",
        "SDTMIG 3.3 Vital Signs": "Req",
        "SDTMIG 3.3 Findings About Events or Interventions": "Req",
        "SDTMIG 3.3 Skin Response": "Req",
        "SDTMIG 3.3 Related Records": "Exp",
        "SDTMIG 3.3 Supplemental Qualifiers for [domain name]": "Req",
        "SDTMIG 3.3 Related Subjects": "Exp",
        "SDTMIG 3.4 Procedure Agents": "Req",
        "SDTMIG 3.4 Concomitant/Prior Medications": "Req",
        "SDTMIG 3.4 Exposure as Collected": "Req",
        "SDTMIG 3.4 Exposure": "Req",
        "SDTMIG 3.4 Meal Data": "Req",
        "SDTMIG 3.4 Procedures": "Req",
        "SDTMIG 3.4 Substance Use": "Req",
        "SDTMIG 3.4 Adverse Events": "Req",
        "SDTMIG 3.4 Biospecimen Events": "Req",
        "SDTMIG 3.4 Clinical Events": "Req",
        "SDTMIG 3.4 Disposition": "Req",
        "SDTMIG 3.4 Protocol Deviations": "Req",
        "SDTMIG 3.4 Healthcare Encounters": "Req",
        "SDTMIG 3.4 Medical History": "Req",
        "SDTMIG 3.4 Biospecimen Findings": "Req",
        "SDTMIG 3.4 Cell Phenotype Findings": "Req",
        "SDTMIG 3.4 Cardiovascular System Findings": "Req",
        "SDTMIG 3.4 Product Accountability": "Req",
        "SDTMIG 3.4 Death Details": "Req",
        "SDTMIG 3.4 ECG Test Results": "Req",
        "SDTMIG 3.4 Functional Tests": "Req",
        "SDTMIG 3.4 Genomics Findings": "Req",
        "SDTMIG 3.4 Inclusion/Exclusion Criteria Not Met": "Req",
        "SDTMIG 3.4 Immunogenicity Specimen Assessments": "Req",
        "SDTMIG 3.4 Laboratory Test Results": "Req",
        "SDTMIG 3.4 Microbiology Specimen": "Req",
        "SDTMIG 3.4 Microscopic Findings": "Req",
        "SDTMIG 3.4 Musculoskeletal System Findings": "Req",
        "SDTMIG 3.4 Microbiology Susceptibility": "Req",
        "SDTMIG 3.4 Nervous System Findings": "Req",
        "SDTMIG 3.4 Ophthalmic Examinations": "Req",
        "SDTMIG 3.4 Pharmacokinetics Concentrations": "Req",
        "SDTMIG 3.4 Physical Examination": "Req",
        "SDTMIG 3.4 Pharmacokinetics Parameters": "Req",
        "SDTMIG 3.4 Questionnaires": "Req",
        "SDTMIG 3.4 Respiratory System Findings": "Req",
        "SDTMIG 3.4 Reproductive System Findings": "Req",
        "SDTMIG 3.4 Disease Response and Clin Classification": "Req",
        "SDTMIG 3.4 Subject Characteristics": "Req",
        "SDTMIG 3.4 Subject Status": "Req",
        "SDTMIG 3.4 Tumor/Lesion Results": "Req",
        "SDTMIG 3.4 Tumor/Lesion Identification": "Req",
        "SDTMIG 3.4 Urinary System Findings": "Req",
        "SDTMIG 3.4 Vital Signs": "Req",
        "SDTMIG 3.4 Findings About Events or Interventions": "Req",
        "SDTMIG 3.4 Skin Response": "Req",
        "SDTMIG 3.4 Comments": "Req",
        "SDTMIG 3.4 Demographics": "Req",
        "SDTMIG 3.4 Subject Elements": "Req",
        "SDTMIG 3.4 Subject Disease Milestones": "Req",
        "SDTMIG 3.4 Subject Visits": "Req",
        "SDTMIG 3.4 Related Records": "Exp",
        "SDTMIG 3.4 Related Specimens": "Req",
        "SDTMIG 3.4 Related Subjects": "Exp",
        "SDTMIG 3.4 Supplemental Qualifiers for [domain name]": "Req",
        "ADaMIG 1.1 Subject-Level Analysis Dataset Structure": "Req",
        "ADaMIG 1.1 Basic Data Structure": "Req",
        "ADaMIG 1.2 Subject-Level Analysis Dataset Structure": "Req",
        "ADaMIG 1.2 Basic Data Structure": "Req"
      }
    },
    "COSEQ": {
      "codelist": null,
      "code": null,
      "label": "Sequence Number",
      "igs": [
        "SDTMIG 3.3",
        "SDTMIG 3.4"
      ],
      "core": {
        "SDTMIG 3.3 Comments": "Req",
        "SDTMIG 3.4 Comments": "Req"
      }
    },
    "IDVAR": {
      "codelist": null,
      "code": null,
      "label": "Identifying Variable",
      "igs": [
        "SDTMIG 3.3",
        "SDTMIG 3.4"
      ],
      "core": {
        "SDTMIG 3.3 Comments": "Perm",
        "SDTMIG 3.3 Related Records": "Req",
        "SDTMIG 3.3 Supplemental Qualifiers for [domain name]": "Exp",
        "SDTMIG 3.4 Comments": "Perm",
        "SDTMIG 3.4 Related Records": "Req",
        "SDTMIG 3.4 Supplemental Qualifiers for [domain name]": "Exp"
      }
    },
    "IDVARVAL": {
      "codelist": null,
      "code": null,
      "label": "Identifying Variable Value",
      "igs": [
        "SDTMIG 3.3",
        "SDTMIG 3.4"
      ],
      "core": {
        "SDTMIG 3.3 Comments": "Perm",
        "SDTMIG 3.3 Related Records": "Exp",
        "SDTMIG 3.3 Supplemental Qualifiers for [domain name]": "Exp",
        "SDTMIG 3.4 Comments": "Perm",
        "SDTMIG 3.4 Related Records": "Exp",
        "SDTMIG 3.4 Supplemental Qualifiers for [domain name]": "Exp"
      }
    },
    "COREF": {
      "codelist": null,
      "code": null,
      "label": "Comment Reference",
      "igs": [
        "SDTMIG 3.3",
        "SDTMIG 3.4"
      ],
      "core": {
        "SDTMIG 3.3 Comments": "Perm",
        "SDTMIG 3.4 Comments": "Perm"
      }
    },
    "COVAL": {
      "codelist": null,
      "code": null,
      "label": "Comment",
      "igs": [
        "SDTMIG 3.3",
        "SDTMIG 3.4"
      ],
      "core": {
        "SDTMIG 3.3 Comments": "Req",
        "SDTMIG 3.4 Comments": "Req"
      }
    },
    "COEVAL": {
      "codelist": "EVAL",
      "code": "C78735",
      "label": "Evaluator",
      "igs": [
        "SDTMIG 3.3",
        "SDTMIG 3.4"
      ],
      "core": {
        "SDTMIG 3.3 Comments": "Perm",
        "SDTMIG 3.4 Comments": "Perm"
      }
    },
    "COEVALID": {
      "codelist": "MEDEVAL",
      "code": "C96777",
      "label": "Evaluator Identifier",
      "igs": [
        "SDTMIG 3.3",
        "SDTMIG 3.4"
      ],
      "core": {
        "SDTMIG 3.3 Comments": "Perm",
        "SDTMIG 3.4 Comments": "Perm"
      }
    },
    "CODTC": {
      "codelist": null,
      "code": null,
      "label": "Date/Time of Comment",
      "igs": [
        "SDTMIG 3.3",
        "SDTMIG 3.4"
      ],
      "core": {
        "SDTMIG 3.3 Comments": "Perm",
        "SDTMIG 3.4 Comments": "Perm"
      }
    },
    "CODY": {
      "codelist": null,
      "code": null,
      "label": "Study Day of Comment",
      "igs": [
        "SDTMIG 3.3",
        "SDTMIG 3.4"
      ],
      "core": {
        "SDTMIG 3.3 Comments": "Perm",
        "SDTMIG 3.4 Comments": "Perm"
      }
    },
    "SUBJID": {
      "codelist": null,
      "code": null,
      "label": "Subject Identifier for the Study",
      "igs": [
        "ADaMIG 1.1",
        "ADaMIG 1.2",
        "SDTMIG 3.3",
        "SDTMIG 3.4"
      ],
      "core": {
        "SDTMIG 3.3 Demographics": "Req",
        "SDTMIG 3.4 Demographics": "Req",
        "ADaMIG 1.1 Subject-Level Analysis Dataset Structure": "Req",
        "ADaMIG 1.1 Basic Data Structure": "Perm",
        "ADaMIG 1.2 Subject-Level Analysis Dataset Structure": "Req",
        "ADaMIG 1.2 Basic Data Structure": "Perm"
      }
    },
    "RFSTDTC": {
      "codelist": null,
      "code": null,
      "label": "Subject Reference Start Date/Time",
      "igs": [
        "SDTMIG 3.3",
        "SDTMIG 3.4"
      ],
      "core": {
        "SDTMIG 3.3 Demographics": "Exp",
        "SDTMIG 3.4 Demographics": "Exp"
      }
    },
    "RFENDTC": {
      "codelist": null,
      "code": null,
      "label": "Subject Reference End Date/Time",
      "igs": [
        "SDTMIG 3.3",
        "SDTMIG 3.4"
      ],
      "core": {
        "SDTMIG 3.3 Demographics": "Exp",
        "SDTMIG 3.4 Demographics": "Exp"
      }
    },
    "RFXSTDTC": {
      "codelist": null,
      "code": null,
      "label": "Date/Time of First Study Treatment",
      "igs": [
        "SDTMIG 3.3",
        "SDTMIG 3.4"
      ],
      "core": {
        "SDTMIG 3.3 Demographics": "Exp",
        "SDTMIG 3.4 Demographics": "Exp"
      }
    },
    "RFXENDTC": {
      "codelist": null,
      "code": null,
      "label": "Date/Time of Last Study Treatment",
      "igs": [
        "SDTMIG 3.3",
        "SDTMIG 3.4"
      ],
      "core": {
        "SDTMIG 3.3 Demographics": "Exp",
        "SDTMIG 3.4 Demographics": "Exp"
      }
    },
    "RFICDTC": {
      "codelist": null,
      "code": null,
      "label": "Date/Time of Informed Consent",
      "igs": [
        "SDTMIG 3.3",
        "SDTMIG 3.4"
      ],
      "core": {
        "SDTMIG 3.3 Demographics": "Exp",
        "SDTMIG 3.4 Demographics": "Exp"
      }
    },
    "RFPENDTC": {
      "codelist": null,
      "code": null,
      "label": "Date/Time of End of Participation",
      "igs": [
        "SDTMIG 3.3",
        "SDTMIG 3.4"
      ],
      "core": {
        "SDTMIG 3.3 Demographics": "Exp",
        "SDTMIG 3.4 Demographics": "Exp"
      }
    },
    "DTHDTC": {
      "codelist": null,
      "code": null,
      "label": "Date/Time of Death",
      "igs": [
        "SDTMIG 3.3",
        "SDTMIG 3.4"
      ],
      "core": {
        "SDTMIG 3.3 Demographics": "Exp",
        "SDTMIG 3.4 Demographics": "Exp"
      }
    },
    "DTHFL": {
      "codelist": "NY",
      "code": "C66742",
      "label": "Subject Death Flag",
      "igs": [
        "SDTMIG 3.3",
        "SDTMIG 3.4"
      ],
      "core": {
        "SDTMIG 3.3 Demographics": "Exp",
        "SDTMIG 3.4 Demographics": "Exp"
      }
    },
    "SITEID": {
      "codelist": null,
      "code": null,
      "label": "Study Site Identifier",
      "igs": [
        "ADaMIG 1.1",
        "ADaMIG 1.2",
        "SDTMIG 3.3",
        "SDTMIG 3.4"
      ],
      "core": {
        "SDTMIG 3.3 Demographics": "Req",
        "SDTMIG 3.4 Demographics": "Req",
        "ADaMIG 1.1 Subject-Level Analysis Dataset Structure": "Req",
        "ADaMIG 1.1 Basic Data Structure": "Perm",
        "ADaMIG 1.2 Subject-Level Analysis Dataset Structure": "Req",
        "ADaMIG 1.2 Basic Data Structure": "Perm"
      }
    },
    "INVID": {
      "codelist": null,
      "code": null,
      "label": "Investigator Identifier",
      "igs": [
        "SDTMIG 3.3",
        "SDTMIG 3.4"
      ],
      "core": {
        "SDTMIG 3.3 Demographics": "Perm",
        "SDTMIG 3.4 Demographics": "Perm"
      }
    },
    "INVNAM": {
      "codelist": null,
      "code": null,
      "label": "Investigator Name",
      "igs": [
        "SDTMIG 3.3",
        "SDTMIG 3.4"
      ],
      "core": {
        "SDTMIG 3.3 Demographics": "Perm",
        "SDTMIG 3.4 Demographics": "Perm"
      }
    },
    "BRTHDTC": {
      "codelist": null,
      "code": null,
      "label": "Date/Time of Birth",
      "igs": [
        "SDTMIG 3.3",
        "SDTMIG 3.4"
      ],
      "core": {
        "SDTMIG 3.3 Demographics": "Perm",
        "SDTMIG 3.4 Demographics": "Perm"
      }
    },
    "AGE": {
      "codelist": null,
      "code": null,
      "label": "Age",
      "igs": [
        "ADaMIG 1.1",
        "ADaMIG 1.2",
        "SDTMIG 3.3",
        "SDTMIG 3.4"
      ],
      "core": {
        "SDTMIG 3.3 Demographics": "Exp",
        "SDTMIG 3.4 Demographics": "Exp",
        "ADaMIG 1.1 Subject-Level Analysis Dataset Structure": "Req",
        "ADaMIG 1.2 Subject-Level Analysis Dataset Structure": "Req"
      }
    },
    "AGEU": {
      "codelist": "AGEU",
      "code": "C66781",
      "label": "Age Units",
      "igs": [
        "ADaMIG 1.1",
        "ADaMIG 1.2",
        "SDTMIG 3.3",
        "SDTMIG 3.4"
      ],
      "core": {
        "SDTMIG 3.3 Demographics": "Exp",
        "SDTMIG 3.4 Demographics": "Exp",
        "ADaMIG 1.1 Subject-Level Analysis Dataset Structure": "Req",
        "ADaMIG 1.2 Subject-Level Analysis Dataset Structure": "Req"
      }
    },
    "SEX": {
      "codelist": "SEX",
      "code": "C66731",
      "label": "Sex",
      "igs": [
        "ADaMIG 1.1",
        "ADaMIG 1.2",
        "SDTMIG 3.3",
        "SDTMIG 3.4"
      ],
      "core": {
        "SDTMIG 3.3 Demographics": "Req",
        "SDTMIG 3.4 Demographics": "Req",
        "ADaMIG 1.1 Subject-Level Analysis Dataset Structure": "Req",
        "ADaMIG 1.2 Subject-Level Analysis Dataset Structure": "Req"
      }
    },
    "RACE": {
      "codelist": "RACE",
      "code": "C74457",
      "label": "Race",
      "igs": [
        "ADaMIG 1.1",
        "ADaMIG 1.2",
        "SDTMIG 3.3",
        "SDTMIG 3.4"
      ],
      "core": {
        "SDTMIG 3.3 Demographics": "Exp",
        "SDTMIG 3.4 Demographics": "Exp",
        "ADaMIG 1.1 Subject-Level Analysis Dataset Structure": "Req",
        "ADaMIG 1.2 Subject-Level Analysis Dataset Structure": "Req"
      }
    },
    "ETHNIC": {
      "codelist": "ETHNIC",
      "code": "C66790",
      "label": "Ethnicity",
      "igs": [
        "SDTMIG 3.3",
        "SDTMIG 3.4"
      ],
      "core": {
        "SDTMIG 3.3 Demographics": "Perm",
        "SDTMIG 3.4 Demographics": "Perm"
      }
    },
    "ARMCD": {
      "codelist": null,
      "code": null,
      "label": "Planned Arm Code",
      "igs": [
        "SDTMIG 3.3",
        "SDTMIG 3.4"
      ],
      "core": {
        "SDTMIG 3.3 Demographics": "Exp",
        "SDTMIG 3.3 Trial Arms": "Req",
        "SDTMIG 3.3 Trial Visits": "Exp",
        "SDTMIG 3.4 Demographics": "Exp",
        "SDTMIG 3.4 Trial Arms": "Req",
        "SDTMIG 3.4 Trial Visits": "Exp"
      }
    },
    "ARM": {
      "codelist": null,
      "code": null,
      "label": "Description of Planned Arm",
      "igs": [
        "ADaMIG 1.1",
        "ADaMIG 1.2",
        "SDTMIG 3.3",
        "SDTMIG 3.4"
      ],
      "core": {
        "SDTMIG 3.3 Demographics": "Exp",
        "SDTMIG 3.3 Trial Arms": "Req",
        "SDTMIG 3.3 Trial Visits": "Perm",
        "SDTMIG 3.4 Demographics": "Exp",
        "SDTMIG 3.4 Trial Arms": "Req",
        "SDTMIG 3.4 Trial Visits": "Perm",
        "ADaMIG 1.1 Subject-Level Analysis Dataset Structure": "Req",
        "ADaMIG 1.2 Subject-Level Analysis Dataset Structure": "Req"
      }
    },
    "ACTARMCD": {
      "codelist": null,
      "code": null,
      "label": "Actual Arm Code",
      "igs": [
        "SDTMIG 3.3",
        "SDTMIG 3.4"
      ],
      "core": {
        "SDTMIG 3.3 Demographics": "Exp",
        "SDTMIG 3.4 Demographics": "Exp"
      }
    },
    "ACTARM": {
      "codelist": null,
      "code": null,
      "label": "Description of Actual Arm",
      "igs": [
        "ADaMIG 1.1",
        "ADaMIG 1.2",
        "SDTMIG 3.3",
        "SDTMIG 3.4"
      ],
      "core": {
        "SDTMIG 3.3 Demographics": "Exp",
        "SDTMIG 3.4 Demographics": "Exp",
        "ADaMIG 1.1 Subject-Level Analysis Dataset Structure": "Perm",
        "ADaMIG 1.2 Subject-Level Analysis Dataset Structure": "Perm"
      }
    },
    "ARMNRS": {
      "codelist": "ARMNULRS",
      "code": "C142179",
      "label": "Reason Arm and/or Actual Arm is Null",
      "igs": [
        "SDTMIG 3.3",
        "SDTMIG 3.4"
      ],
      "core": {
        "SDTMIG 3.3 Demographics": "Exp",
        "SDTMIG 3.4 Demographics": "Exp"
      }
    },
    "ACTARMUD": {
      "codelist": null,
      "code": null,
      "label": "Description of Unplanned Actual Arm",
      "igs": [
        "SDTMIG 3.3",
        "SDTMIG 3.4"
      ],
      "core": {
        "SDTMIG 3.3 Demographics": "Exp",
        "SDTMIG 3.4 Demographics": "Exp"
      }
    },
    "COUNTRY": {
      "codelist": null,
      "code": null,
      "label": "Country",
      "igs": [
        "SDTMIG 3.3",
        "SDTMIG 3.4"
      ],
      "core": {
        "SDTMIG 3.3 Demographics": "Req",
        "SDTMIG 3.4 Demographics": "Req"
      }
    },
    "DMDTC": {
      "codelist": null,
      "code": null,
      "label": "Date/Time of Collection",
      "igs": [
        "SDTMIG 3.3",
        "SDTMIG 3.4"
      ],
      "core": {
        "SDTMIG 3.3 Demographics": "Perm",
        "SDTMIG 3.4 Demographics": "Perm"
      }
    },
    "DMDY": {
      "codelist": null,
      "code": null,
      "label": "Study Day of Collection",
      "igs": [
        "SDTMIG 3.3",
        "SDTMIG 3.4"
      ],
      "core": {
        "SDTMIG 3.3 Demographics": "Perm",
        "SDTMIG 3.4 Demographics": "Perm"
      }
    },
    "SESEQ": {
      "codelist": null,
      "code": null,
      "label": "Sequence Number",
      "igs": [
        "SDTMIG 3.3",
        "SDTMIG 3.4"
      ],
      "core": {
        "SDTMIG 3.3 Subject Elements": "Req",
        "SDTMIG 3.4 Subject Elements": "Req"
      }
    },
    "ETCD": {
      "codelist": null,
      "code": null,
      "label": "Element Code",
      "igs": [
        "SDTMIG 3.3",
        "SDTMIG 3.4"
      ],
      "core": {
        "SDTMIG 3.3 Subject Elements": "Req",
        "SDTMIG 3.3 Trial Arms": "Req",
        "SDTMIG 3.3 Trial Elements": "Req",
        "SDTMIG 3.4 Subject Elements": "Req",
        "SDTMIG 3.4 Trial Arms": "Req",
        "SDTMIG 3.4 Trial Elements": "Req"
      }
    },
    "ELEMENT": {
      "codelist": null,
      "code": null,
      "label": "Description of Element",
      "igs": [
        "SDTMIG 3.3",
        "SDTMIG 3.4"
      ],
      "core": {
        "SDTMIG 3.3 Subject Elements": "Perm",
        "SDTMIG 3.3 Trial Arms": "Perm",
        "SDTMIG 3.3 Trial Elements": "Req",
        "SDTMIG 3.4 Subject Elements": "Perm",
        "SDTMIG 3.4 Trial Arms": "Perm",
        "SDTMIG 3.4 Trial Elements": "Req"
      }
    },
    "TAETORD": {
      "codelist": null,
      "code": null,
      "label": "Planned Order of Element within Arm",
      "igs": [
        "SDTMIG 3.3",
        "SDTMIG 3.4"
      ],
      "core": {
        "SDTMIG 3.3 Subject Elements": "Perm",
        "SDTMIG 3.3 Procedure Agents": "Perm",
        "SDTMIG 3.3 Concomitant/Prior Medications": "Perm",
        "SDTMIG 3.3 Exposure": "Perm",
        "SDTMIG 3.3 Exposure as Collected": "Perm",
        "SDTMIG 3.3 Meal Data": "Perm",
        "SDTMIG 3.3 Procedures": "Perm",
        "SDTMIG 3.3 Substance Use": "Perm",
        "SDTMIG 3.3 Adverse Events": "Perm",
        "SDTMIG 3.3 Clinical Events": "Perm",
        "SDTMIG 3.3 Protocol Deviations": "Perm",
        "SDTMIG 3.3 Healthcare Encounters": "Perm",
        "SDTMIG 3.3 Medical History": "Perm",
        "SDTMIG 3.3 Drug Accountability": "Perm",
        "SDTMIG 3.3 ECG Test Results": "Perm",
        "SDTMIG 3.3 Inclusion/Exclusion Criteria Not Met": "Perm",
        "SDTMIG 3.3 Immunogenicity Specimen Assessments": "Perm",
        "SDTMIG 3.3 Laboratory Test Results": "Perm",
        "SDTMIG 3.3 Microbiology Specimen": "Perm",
        "SDTMIG 3.3 Microbiology Susceptibility": "Perm",
        "SDTMIG 3.3 Microscopic Findings": "Perm",
        "SDTMIG 3.3 Morphology": "Perm",
        "SDTMIG 3.3 Cardiovascular System Findings": "Perm",
        "SDTMIG 3.3 Musculoskeletal System Findings": "Perm",
        "SDTMIG 3.3 Nervous System Findings": "Perm",
        "SDTMIG 3.3 Ophthalmic Examinations": "Perm",
        "SDTMIG 3.3 Reproductive System Findings": "Perm",
        "SDTMIG 3.3 Respiratory System Findings": "Perm",
        "SDTMIG 3.3 Urinary System Findings": "Perm",
        "SDTMIG 3.3 Pharmacokinetics Concentrations": "Perm",
        "SDTMIG 3.3 Pharmacokinetics Parameters": "Perm",
        "SDTMIG 3.3 Physical Examination": "Perm",
        "SDTMIG 3.3 Functional Tests": "Perm",
        "SDTMIG 3.3 Questionnaires": "Perm",
        "SDTMIG 3.3 Disease Response and Clin Classification": "Perm",
        "SDTMIG 3.3 Subject Characteristics": "Perm",
        "SDTMIG 3.3 Subject Status": "Perm",
        "SDTMIG 3.3 Tumor/Lesion Identification": "Perm",
        "SDTMIG 3.3 Tumor/Lesion Results": "Perm",
        "SDTMIG 3.3 Vital Signs": "Perm",
        "SDTMIG 3.3 Findings About Events or Interventions": "Perm",
        "SDTMIG 3.3 Skin Response": "Perm",
        "SDTMIG 3.3 Trial Arms": "Req",
        "SDTMIG 3.4 Procedure Agents": "Perm",
        "SDTMIG 3.4 Concomitant/Prior Medications": "Perm",
        "SDTMIG 3.4 Exposure as Collected": "Perm",
        "SDTMIG 3.4 Exposure": "Perm",
        "SDTMIG 3.4 Meal Data": "Perm",
        "SDTMIG 3.4 Procedures": "Perm",
        "SDTMIG 3.4 Substance Use": "Perm",
        "SDTMIG 3.4 Adverse Events": "Perm",
        "SDTMIG 3.4 Clinical Events": "Perm",
        "SDTMIG 3.4 Protocol Deviations": "Perm",
        "SDTMIG 3.4 Healthcare Encounters": "Perm",
        "SDTMIG 3.4 Medical History": "Perm",
        "SDTMIG 3.4 Cell Phenotype Findings": "Perm",
        "SDTMIG 3.4 Cardiovascular System Findings": "Perm",
        "SDTMIG 3.4 Product Accountability": "Perm",
        "SDTMIG 3.4 ECG Test Results": "Perm",
        "SDTMIG 3.4 Functional Tests": "Perm",
        "SDTMIG 3.4 Inclusion/Exclusion Criteria Not Met": "Perm",
        "SDTMIG 3.4 Immunogenicity Specimen Assessments": "Perm",
        "SDTMIG 3.4 Laboratory Test Results": "Perm",
        "SDTMIG 3.4 Microbiology Specimen": "Perm",
        "SDTMIG 3.4 Microscopic Findings": "Perm",
        "SDTMIG 3.4 Musculoskeletal System Findings": "Perm",
        "SDTMIG 3.4 Microbiology Susceptibility": "Perm",
        "SDTMIG 3.4 Nervous System Findings": "Perm",
        "SDTMIG 3.4 Ophthalmic Examinations": "Perm",
        "SDTMIG 3.4 Pharmacokinetics Concentrations": "Perm",
        "SDTMIG 3.4 Physical Examination": "Perm",
        "SDTMIG 3.4 Pharmacokinetics Parameters": "Perm",
        "SDTMIG 3.4 Questionnaires": "Perm",
        "SDTMIG 3.4 Respiratory System Findings": "Perm",
        "SDTMIG 3.4 Reproductive System Findings": "Perm",
        "SDTMIG 3.4 Disease Response and Clin Classification": "Perm",
        "SDTMIG 3.4 Subject Characteristics": "Perm",
        "SDTMIG 3.4 Subject Status": "Perm",
        "SDTMIG 3.4 Tumor/Lesion Results": "Perm",
        "SDTMIG 3.4 Tumor/Lesion Identification": "Perm",
        "SDTMIG 3.4 Urinary System Findings": "Perm",
        "SDTMIG 3.4 Vital Signs": "Perm",
        "SDTMIG 3.4 Findings About Events or Interventions": "Perm",
        "SDTMIG 3.4 Skin Response": "Perm",
        "SDTMIG 3.4 Subject Elements": "Perm",
        "SDTMIG 3.4 Trial Arms": "Req"
      }
    },
    "EPOCH": {
      "codelist": "EPOCH",
      "code": "C99079",
      "label": "Epoch",
      "igs": [
        "SDTMIG 3.3",
        "SDTMIG 3.4"
      ],
      "core": {
        "SDTMIG 3.3 Subject Elements": "Perm",
        "SDTMIG 3.3 Procedure Agents": "Perm",
        "SDTMIG 3.3 Concomitant/Prior Medications": "Perm",
        "SDTMIG 3.3 Exposure": "Perm",
        "SDTMIG 3.3 Exposure as Collected": "Perm",
        "SDTMIG 3.3 Meal Data": "Perm",
        "SDTMIG 3.3 Procedures": "Perm",
        "SDTMIG 3.3 Substance Use": "Perm",
        "SDTMIG 3.3 Adverse Events": "Perm",
        "SDTMIG 3.3 Clinical Events": "Perm",
        "SDTMIG 3.3 Disposition": "Perm",
        "SDTMIG 3.3 Protocol Deviations": "Perm",
        "SDTMIG 3.3 Healthcare Encounters": "Perm",
        "SDTMIG 3.3 Medical History": "Perm",
        "SDTMIG 3.3 Drug Accountability": "Perm",
        "SDTMIG 3.3 ECG Test Results": "Perm",
        "SDTMIG 3.3 Inclusion/Exclusion Criteria Not Met": "Perm",
        "SDTMIG 3.3 Immunogenicity Specimen Assessments": "Perm",
        "SDTMIG 3.3 Laboratory Test Results": "Perm",
        "SDTMIG 3.3 Microbiology Specimen": "Perm",
        "SDTMIG 3.3 Microbiology Susceptibility": "Perm",
        "SDTMIG 3.3 Microscopic Findings": "Perm",
        "SDTMIG 3.3 Morphology": "Perm",
        "SDTMIG 3.3 Cardiovascular System Findings": "Perm",
        "SDTMIG 3.3 Musculoskeletal System Findings": "Perm",
        "SDTMIG 3.3 Nervous System Findings": "Perm",
        "SDTMIG 3.3 Ophthalmic Examinations": "Perm",
        "SDTMIG 3.3 Reproductive System Findings": "Perm",
        "SDTMIG 3.3 Respiratory System Findings": "Perm",
        "SDTMIG 3.3 Urinary System Findings": "Perm",
        "SDTMIG 3.3 Pharmacokinetics Concentrations": "Perm",
        "SDTMIG 3.3 Pharmacokinetics Parameters": "Perm",
        "SDTMIG 3.3 Physical Examination": "Perm",
        "SDTMIG 3.3 Functional Tests": "Perm",
        "SDTMIG 3.3 Questionnaires": "Perm",
        "SDTMIG 3.3 Disease Response and Clin Classification": "Perm",
        "SDTMIG 3.3 Subject Characteristics": "Perm",
        "SDTMIG 3.3 Subject Status": "Perm",
        "SDTMIG 3.3 Tumor/Lesion Identification": "Perm",
        "SDTMIG 3.3 Tumor/Lesion Results": "Perm",
        "SDTMIG 3.3 Vital Signs": "Perm",
        "SDTMIG 3.3 Findings About Events or Interventions": "Perm",
        "SDTMIG 3.3 Skin Response": "Perm",
        "SDTMIG 3.3 Trial Arms": "Req",
        "SDTMIG 3.4 Procedure Agents": "Perm",
        "SDTMIG 3.4 Concomitant/Prior Medications": "Perm",
        "SDTMIG 3.4 Exposure as Collected": "Perm",
        "SDTMIG 3.4 Exposure": "Perm",
        "SDTMIG 3.4 Meal Data": "Perm",
        "SDTMIG 3.4 Procedures": "Perm",
        "SDTMIG 3.4 Substance Use": "Perm",
        "SDTMIG 3.4 Adverse Events": "Perm",
        "SDTMIG 3.4 Clinical Events": "Perm",
        "SDTMIG 3.4 Disposition": "Perm",
        "SDTMIG 3.4 Protocol Deviations": "Perm",
        "SDTMIG 3.4 Healthcare Encounters": "Perm",
        "SDTMIG 3.4 Medical History": "Perm",
        "SDTMIG 3.4 Cell Phenotype Findings": "Perm",
        "SDTMIG 3.4 Cardiovascular System Findings": "Perm",
        "SDTMIG 3.4 Product Accountability": "Perm",
        "SDTMIG 3.4 ECG Test Results": "Perm",
        "SDTMIG 3.4 Functional Tests": "Perm",
        "SDTMIG 3.4 Inclusion/Exclusion Criteria Not Met": "Perm",
        "SDTMIG 3.4 Immunogenicity Specimen Assessments": "Perm",
        "SDTMIG 3.4 Laboratory Test Results": "Perm",
        "SDTMIG 3.4 Microbiology Specimen": "Perm",
        "SDTMIG 3.4 Microscopic Findings": "Perm",
        "SDTMIG 3.4 Musculoskeletal System Findings": "Perm",
        "SDTMIG 3.4 Microbiology Susceptibility": "Perm",
        "SDTMIG 3.4 Nervous System Findings": "Perm",
        "SDTMIG 3.4 Ophthalmic Examinations": "Perm",
        "SDTMIG 3.4 Pharmacokinetics Concentrations": "Perm",
        "SDTMIG 3.4 Physical Examination": "Perm",
        "SDTMIG 3.4 Pharmacokinetics Parameters": "Perm",
        "SDTMIG 3.4 Questionnaires": "Perm",
        "SDTMIG 3.4 Respiratory System Findings": "Perm",
        "SDTMIG 3.4 Reproductive System Findings": "Perm",
        "SDTMIG 3.4 Disease Response and Clin Classification": "Perm",
        "SDTMIG 3.4 Subject Characteristics": "Perm",
        "SDTMIG 3.4 Subject Status": "Perm",
        "SDTMIG 3.4 Tumor/Lesion Results": "Perm",
        "SDTMIG 3.4 Tumor/Lesion Identification": "Perm",
        "SDTMIG 3.4 Urinary System Findings": "Perm",
        "SDTMIG 3.4 Vital Signs": "Perm",
        "SDTMIG 3.4 Findings About Events or Interventions": "Perm",
        "SDTMIG 3.4 Skin Response": "Perm",
        "SDTMIG 3.4 Subject Elements": "Perm",
        "SDTMIG 3.4 Trial Arms": "Req"
      }
    },
    "SESTDTC": {
      "codelist": null,
      "code": null,
      "label": "Start Date/Time of Element",
      "igs": [
        "SDTMIG 3.3",
        "SDTMIG 3.4"
      ],
      "core": {
        "SDTMIG 3.3 Subject Elements": "Req",
        "SDTMIG 3.4 Subject Elements": "Req"
      }
    },
    "SEENDTC": {
      "codelist": null,
      "code": null,
      "label": "End Date/Time of Element",
      "igs": [
        "SDTMIG 3.3",
        "SDTMIG 3.4"
      ],
      "core": {
        "SDTMIG 3.3 Subject Elements": "Exp",
        "SDTMIG 3.4 Subject Elements": "Exp"
      }
    },
    "SEUPDES": {
      "codelist": null,
      "code": null,
      "label": "Description of Unplanned Element",
      "igs": [
        "SDTMIG 3.3",
        "SDTMIG 3.4"
      ],
      "core": {
        "SDTMIG 3.3 Subject Elements": "Perm",
        "SDTMIG 3.4 Subject Elements": "Perm"
      }
    },
    "SMSEQ": {
      "codelist": null,
      "code": null,
      "label": "Sequence Number",
      "igs": [
        "SDTMIG 3.3",
        "SDTMIG 3.4"
      ],
      "core": {
        "SDTMIG 3.3 Subject Disease Milestones": "Req",
        "SDTMIG 3.4 Subject Disease Milestones": "Req"
      }
    },
    "MIDS": {
      "codelist": null,
      "code": null,
      "label": "Disease Milestone Instance Name",
      "igs": [
        "SDTMIG 3.3",
        "SDTMIG 3.4"
      ],
      "core": {
        "SDTMIG 3.3 Subject Disease Milestones": "Req",
        "SDTMIG 3.3 Meal Data": "Perm",
        "SDTMIG 3.4 Meal Data": "Perm",
        "SDTMIG 3.4 Subject Disease Milestones": "Req"
      }
    },
    "MIDSTYPE": {
      "codelist": null,
      "code": null,
      "label": "Disease Milestone Type",
      "igs": [
        "SDTMIG 3.3",
        "SDTMIG 3.4"
      ],
      "core": {
        "SDTMIG 3.3 Subject Disease Milestones": "Req",
        "SDTMIG 3.3 Trial Disease Milestones": "Req",
        "SDTMIG 3.4 Subject Disease Milestones": "Req",
        "SDTMIG 3.4 Trial Disease Milestones": "Req"
      }
    },
    "SMSTDTC": {
      "codelist": null,
      "code": null,
      "label": "Start Date/Time of Milestone",
      "igs": [
        "SDTMIG 3.3",
        "SDTMIG 3.4"
      ],
      "core": {
        "SDTMIG 3.3 Subject Disease Milestones": "Exp",
        "SDTMIG 3.4 Subject Disease Milestones": "Exp"
      }
    },
    "SMENDTC": {
      "codelist": null,
      "code": null,
      "label": "End Date/Time of Milestone",
      "igs": [
        "SDTMIG 3.3",
        "SDTMIG 3.4"
      ],
      "core": {
        "SDTMIG 3.3 Subject Disease Milestones": "Exp",
        "SDTMIG 3.4 Subject Disease Milestones": "Exp"
      }
    },
    "SMSTDY": {
      "codelist": null,
      "code": null,
      "label": "Study Day of Start of Milestone",
      "igs": [
        "SDTMIG 3.3",
        "SDTMIG 3.4"
      ],
      "core": {
        "SDTMIG 3.3 Subject Disease Milestones": "Exp",
        "SDTMIG 3.4 Subject Disease Milestones": "Exp"
      }
    },
    "SMENDY": {
      "codelist": null,
      "code": null,
      "label": "Study Day of End of Milestone",
      "igs": [
        "SDTMIG 3.3",
        "SDTMIG 3.4"
      ],
      "core": {
        "SDTMIG 3.3 Subject Disease Milestones": "Exp",
        "SDTMIG 3.4 Subject Disease Milestones": "Exp"
      }
    },
    "VISITNUM": {
      "codelist": null,
      "code": null,
      "label": "Visit Number",
      "igs": [
        "SDTMIG 3.3",
        "SDTMIG 3.4"
      ],
      "core": {
        "SDTMIG 3.3 Subject Visits": "Req",
        "SDTMIG 3.3 Procedure Agents": "Exp",
        "SDTMIG 3.3 Meal Data": "Perm",
        "SDTMIG 3.3 Procedures": "Perm",
        "SDTMIG 3.3 Drug Accountability": "Exp",
        "SDTMIG 3.3 ECG Test Results": "Exp",
        "SDTMIG 3.3 Inclusion/Exclusion Criteria Not Met": "Perm",
        "SDTMIG 3.3 Immunogenicity Specimen Assessments": "Exp",
        "SDTMIG 3.3 Laboratory Test Results": "Exp",
        "SDTMIG 3.3 Microbiology Specimen": "Exp",
        "SDTMIG 3.3 Microbiology Susceptibility": "Exp",
        "SDTMIG 3.3 Microscopic Findings": "Exp",
        "SDTMIG 3.3 Morphology": "Exp",
        "SDTMIG 3.3 Cardiovascular System Findings": "Exp",
        "SDTMIG 3.3 Musculoskeletal System Findings": "Exp",
        "SDTMIG 3.3 Nervous System Findings": "Exp",
        "SDTMIG 3.3 Ophthalmic Examinations": "Exp",
        "SDTMIG 3.3 Reproductive System Findings": "Exp",
        "SDTMIG 3.3 Respiratory System Findings": "Exp",
        "SDTMIG 3.3 Urinary System Findings": "Exp",
        "SDTMIG 3.3 Pharmacokinetics Concentrations": "Exp",
        "SDTMIG 3.3 Physical Examination": "Exp",
        "SDTMIG 3.3 Functional Tests": "Exp",
        "SDTMIG 3.3 Questionnaires": "Exp",
        "SDTMIG 3.3 Disease Response and Clin Classification": "Exp",
        "SDTMIG 3.3 Subject Status": "Exp",
        "SDTMIG 3.3 Tumor/Lesion Identification": "Exp",
        "SDTMIG 3.3 Tumor/Lesion Results": "Exp",
        "SDTMIG 3.3 Vital Signs": "Exp",
        "SDTMIG 3.3 Findings About Events or Interventions": "Exp",
        "SDTMIG 3.3 Skin Response": "Exp",
        "SDTMIG 3.3 Trial Visits": "Req",
        "SDTMIG 3.4 Procedure Agents": "Exp",
        "SDTMIG 3.4 Meal Data": "Perm",
        "SDTMIG 3.4 Procedures": "Perm",
        "SDTMIG 3.4 Biospecimen Events": "Exp",
        "SDTMIG 3.4 Biospecimen Findings": "Exp",
        "SDTMIG 3.4 Cell Phenotype Findings": "Perm",
        "SDTMIG 3.4 Cardiovascular System Findings": "Exp",
        "SDTMIG 3.4 Product Accountability": "Exp",
        "SDTMIG 3.4 ECG Test Results": "Exp",
        "SDTMIG 3.4 Functional Tests": "Exp",
        "SDTMIG 3.4 Genomics Findings": "Exp",
        "SDTMIG 3.4 Inclusion/Exclusion Criteria Not Met": "Perm",
        "SDTMIG 3.4 Immunogenicity Specimen Assessments": "Exp",
        "SDTMIG 3.4 Laboratory Test Results": "Exp",
        "SDTMIG 3.4 Microbiology Specimen": "Exp",
        "SDTMIG 3.4 Microscopic Findings": "Exp",
        "SDTMIG 3.4 Musculoskeletal System Findings": "Exp",
        "SDTMIG 3.4 Microbiology Susceptibility": "Exp",
        "SDTMIG 3.4 Nervous System Findings": "Exp",
        "SDTMIG 3.4 Ophthalmic Examinations": "Exp",
        "SDTMIG 3.4 Pharmacokinetics Concentrations": "Exp",
        "SDTMIG 3.4 Physical Examination": "Exp",
        "SDTMIG 3.4 Questionnaires": "Exp",
        "SDTMIG 3.4 Respiratory System Findings": "Exp",
        "SDTMIG 3.4 Reproductive System Findings": "Exp",
        "SDTMIG 3.4 Disease Response and Clin Classification": "Exp",
        "SDTMIG 3.4 Subject Characteristics": "Perm",
        "SDTMIG 3.4 Subject Status": "Exp",
        "SDTMIG 3.4 Tumor/Lesion Results": "Exp",
        "SDTMIG 3.4 Tumor/Lesion Identification": "Exp",
        "SDTMIG 3.4 Urinary System Findings": "Exp",
        "SDTMIG 3.4 Vital Signs": "Exp",
        "SDTMIG 3.4 Findings About Events or Interventions": "Exp",
        "SDTMIG 3.4 Skin Response": "Exp",
        "SDTMIG 3.4 Subject Visits": "Req",
        "SDTMIG 3.4 Trial Visits": "Req"
      }
    },
    "VISIT": {
      "codelist": null,
      "code": null,
      "label": "Visit Name",
      "igs": [
        "SDTMIG 3.3",
        "SDTMIG 3.4"
      ],
      "core": {
        "SDTMIG 3.3 Subject Visits": "Perm",
        "SDTMIG 3.3 Procedure Agents": "Perm",
        "SDTMIG 3.3 Meal Data": "Perm",
        "SDTMIG 3.3 Procedures": "Perm",
        "SDTMIG 3.3 Drug Accountability": "Perm",
        "SDTMIG 3.3 ECG Test Results": "Perm",
        "SDTMIG 3.3 Inclusion/Exclusion Criteria Not Met": "Perm",
        "SDTMIG 3.3 Immunogenicity Specimen Assessments": "Perm",
        "SDTMIG 3.3 Laboratory Test Results": "Perm",
        "SDTMIG 3.3 Microbiology Specimen": "Perm",
        "SDTMIG 3.3 Microbiology Susceptibility": "Perm",
        "SDTMIG 3.3 Microscopic Findings": "Perm",
        "SDTMIG 3.3 Morphology": "Perm",
        "SDTMIG 3.3 Cardiovascular System Findings": "Perm",
        "SDTMIG 3.3 Musculoskeletal System Findings": "Perm",
        "SDTMIG 3.3 Nervous System Findings": "Perm",
        "SDTMIG 3.3 Ophthalmic Examinations": "Perm",
        "SDTMIG 3.3 Reproductive System Findings": "Perm",
        "SDTMIG 3.3 Respiratory System Findings": "Perm",
        "SDTMIG 3.3 Urinary System Findings": "Perm",
        "SDTMIG 3.3 Pharmacokinetics Concentrations": "Perm",
        "SDTMIG 3.3 Physical Examination": "Perm",
        "SDTMIG 3.3 Functional Tests": "Perm",
        "SDTMIG 3.3 Questionnaires": "Perm",
        "SDTMIG 3.3 Disease Response and Clin Classification": "Perm",
        "SDTMIG 3.3 Subject Status": "Perm",
        "SDTMIG 3.3 Tumor/Lesion Identification": "Perm",
        "SDTMIG 3.3 Tumor/Lesion Results": "Perm",
        "SDTMIG 3.3 Vital Signs": "Perm",
        "SDTMIG 3.3 Findings About Events or Interventions": "Perm",
        "SDTMIG 3.3 Skin Response": "Perm",
        "SDTMIG 3.3 Trial Visits": "Perm",
        "SDTMIG 3.4 Procedure Agents": "Perm",
        "SDTMIG 3.4 Meal Data": "Perm",
        "SDTMIG 3.4 Procedures": "Perm",
        "SDTMIG 3.4 Biospecimen Events": "Perm",
        "SDTMIG 3.4 Biospecimen Findings": "Perm",
        "SDTMIG 3.4 Cell Phenotype Findings": "Perm",
        "SDTMIG 3.4 Cardiovascular System Findings": "Perm",
        "SDTMIG 3.4 Product Accountability": "Perm",
        "SDTMIG 3.4 ECG Test Results": "Perm",
        "SDTMIG 3.4 Functional Tests": "Perm",
        "SDTMIG 3.4 Genomics Findings": "Perm",
        "SDTMIG 3.4 Inclusion/Exclusion Criteria Not Met": "Perm",
        "SDTMIG 3.4 Immunogenicity Specimen Assessments": "Perm",
        "SDTMIG 3.4 Laboratory Test Results": "Perm",
        "SDTMIG 3.4 Microbiology Specimen": "Perm",
        "SDTMIG 3.4 Microscopic Findings": "Perm",
        "SDTMIG 3.4 Musculoskeletal System Findings": "Perm",
        "SDTMIG 3.4 Microbiology Susceptibility": "Perm",
        "SDTMIG 3.4 Nervous System Findings": "Perm",
        "SDTMIG 3.4 Ophthalmic Examinations": "Perm",
        "SDTMIG 3.4 Pharmacokinetics Concentrations": "Perm",
        "SDTMIG 3.4 Physical Examination": "Perm",
        "SDTMIG 3.4 Questionnaires": "Perm",
        "SDTMIG 3.4 Respiratory System Findings": "Perm",
        "SDTMIG 3.4 Reproductive System Findings": "Perm",
        "SDTMIG 3.4 Disease Response and Clin Classification": "Perm",
        "SDTMIG 3.4 Subject Characteristics": "Perm",
        "SDTMIG 3.4 Subject Status": "Perm",
        "SDTMIG 3.4 Tumor/Lesion Results": "Perm",
        "SDTMIG 3.4 Tumor/Lesion Identification": "Perm",
        "SDTMIG 3.4 Urinary System Findings": "Perm",
        "SDTMIG 3.4 Vital Signs": "Perm",
        "SDTMIG 3.4 Findings About Events or Interventions": "Perm",
        "SDTMIG 3.4 Skin Response": "Perm",
        "SDTMIG 3.4 Subject Visits": "Perm",
        "SDTMIG 3.4 Trial Visits": "Req"
      }
    },
    "VISITDY": {
      "codelist": null,
      "code": null,
      "label": "Planned Study Day of Visit",
      "igs": [
        "SDTMIG 3.3",
        "SDTMIG 3.4"
      ],
      "core": {
        "SDTMIG 3.3 Subject Visits": "Perm",
        "SDTMIG 3.3 Procedure Agents": "Perm",
        "SDTMIG 3.3 Meal Data": "Perm",
        "SDTMIG 3.3 Procedures": "Perm",
        "SDTMIG 3.3 Drug Accountability": "Perm",
        "SDTMIG 3.3 ECG Test Results": "Perm",
        "SDTMIG 3.3 Inclusion/Exclusion Criteria Not Met": "Perm",
        "SDTMIG 3.3 Immunogenicity Specimen Assessments": "Perm",
        "SDTMIG 3.3 Laboratory Test Results": "Perm",
        "SDTMIG 3.3 Microbiology Specimen": "Perm",
        "SDTMIG 3.3 Microbiology Susceptibility": "Perm",
        "SDTMIG 3.3 Microscopic Findings": "Perm",
        "SDTMIG 3.3 Morphology": "Perm",
        "SDTMIG 3.3 Cardiovascular System Findings": "Perm",
        "SDTMIG 3.3 Musculoskeletal System Findings": "Perm",
        "SDTMIG 3.3 Nervous System Findings": "Perm",
        "SDTMIG 3.3 Ophthalmic Examinations": "Perm",
        "SDTMIG 3.3 Reproductive System Findings": "Perm",
        "SDTMIG 3.3 Respiratory System Findings": "Perm",
        "SDTMIG 3.3 Urinary System Findings": "Perm",
        "SDTMIG 3.3 Pharmacokinetics Concentrations": "Perm",
        "SDTMIG 3.3 Physical Examination": "Perm",
        "SDTMIG 3.3 Functional Tests": "Perm",
        "SDTMIG 3.3 Questionnaires": "Perm",
        "SDTMIG 3.3 Disease Response and Clin Classification": "Perm",
        "SDTMIG 3.3 Subject Status": "Perm",
        "SDTMIG 3.3 Tumor/Lesion Identification": "Perm",
        "SDTMIG 3.3 Tumor/Lesion Results": "Perm",
        "SDTMIG 3.3 Vital Signs": "Perm",
        "SDTMIG 3.3 Findings About Events or Interventions": "Perm",
        "SDTMIG 3.3 Skin Response": "Perm",
        "SDTMIG 3.3 Trial Visits": "Perm",
        "SDTMIG 3.4 Procedure Agents": "Perm",
        "SDTMIG 3.4 Meal Data": "Perm",
        "SDTMIG 3.4 Procedures": "Perm",
        "SDTMIG 3.4 Biospecimen Events": "Perm",
        "SDTMIG 3.4 Biospecimen Findings": "Perm",
        "SDTMIG 3.4 Cell Phenotype Findings": "Perm",
        "SDTMIG 3.4 Cardiovascular System Findings": "Perm",
        "SDTMIG 3.4 Product Accountability": "Perm",
        "SDTMIG 3.4 ECG Test Results": "Perm",
        "SDTMIG 3.4 Functional Tests": "Perm",
        "SDTMIG 3.4 Genomics Findings": "Perm",
        "SDTMIG 3.4 Inclusion/Exclusion Criteria Not Met": "Perm",
        "SDTMIG 3.4 Immunogenicity Specimen Assessments": "Perm",
        "SDTMIG 3.4 Laboratory Test Results": "Perm",
        "SDTMIG 3.4 Microbiology Specimen": "Perm",
        "SDTMIG 3.4 Microscopic Findings": "Perm",
        "SDTMIG 3.4 Musculoskeletal System Findings": "Perm",
        "SDTMIG 3.4 Microbiology Susceptibility": "Perm",
        "SDTMIG 3.4 Nervous System Findings": "Perm",
        "SDTMIG 3.4 Ophthalmic Examinations": "Perm",
        "SDTMIG 3.4 Pharmacokinetics Concentrations": "Perm",
        "SDTMIG 3.4 Physical Examination": "Perm",
        "SDTMIG 3.4 Questionnaires": "Perm",
        "SDTMIG 3.4 Respiratory System Findings": "Perm",
        "SDTMIG 3.4 Reproductive System Findings": "Perm",
        "SDTMIG 3.4 Disease Response and Clin Classification": "Perm",
        "SDTMIG 3.4 Subject Characteristics": "Perm",
        "SDTMIG 3.4 Subject Status": "Perm",
        "SDTMIG 3.4 Tumor/Lesion Results": "Perm",
        "SDTMIG 3.4 Tumor/Lesion Identification": "Perm",
        "SDTMIG 3.4 Urinary System Findings": "Perm",
        "SDTMIG 3.4 Vital Signs": "Perm",
        "SDTMIG 3.4 Findings About Events or Interventions": "Perm",
        "SDTMIG 3.4 Skin Response": "Perm",
        "SDTMIG 3.4 Subject Visits": "Perm",
        "SDTMIG 3.4 Trial Visits": "Perm"
      }
    },
    "SVSTDTC": {
      "codelist": null,
      "code": null,
      "label": "Start Date/Time of Visit",
      "igs": [
        "SDTMIG 3.3",
        "SDTMIG 3.4"
      ],
      "core": {
        "SDTMIG 3.3 Subject Visits": "Exp",
        "SDTMIG 3.4 Subject Visits": "Exp"
      }
    },
    "SVENDTC": {
      "codelist": null,
      "code": null,
      "label": "End Date/Time of Visit",
      "igs": [
        "SDTMIG 3.3",
        "SDTMIG 3.4"
      ],
      "core": {
        "SDTMIG 3.3 Subject Visits": "Exp",
        "SDTMIG 3.4 Subject Visits": "Exp"
      }
    },
    "SVSTDY": {
      "codelist": null,
      "code": null,
      "label": "Study Day of Start of Visit",
      "igs": [
        "SDTMIG 3.3",
        "SDTMIG 3.4"
      ],
      "core": {
        "SDTMIG 3.3 Subject Visits": "Perm",
        "SDTMIG 3.4 Subject Visits": "Perm"
      }
    },
    "SVENDY": {
      "codelist": null,
      "code": null,
      "label": "Study Day of End of Visit",
      "igs": [
        "SDTMIG 3.3",
        "SDTMIG 3.4"
      ],
      "core": {
        "SDTMIG 3.3 Subject Visits": "Perm",
        "SDTMIG 3.4 Subject Visits": "Perm"
      }
    },
    "SVUPDES": {
      "codelist": null,
      "code": null,
      "label": "Description of Unplanned Visit",
      "igs": [
        "SDTMIG 3.3",
        "SDTMIG 3.4"
      ],
      "core": {
        "SDTMIG 3.3 Subject Visits": "Perm",
        "SDTMIG 3.4 Subject Visits": "Perm"
      }
    },
    "AGSEQ": {
      "codelist": null,
      "code": null,
      "label": "Sequence Number",
      "igs": [
        "SDTMIG 3.3",
        "SDTMIG 3.4"
      ],
      "core": {
        "SDTMIG 3.3 Procedure Agents": "Req",
        "SDTMIG 3.4 Procedure Agents": "Req"
      }
    },
    "AGGRPID": {
      "codelist": null,
      "code": null,
      "label": "Group ID",
      "igs": [
        "SDTMIG 3.3",
        "SDTMIG 3.4"
      ],
      "core": {
        "SDTMIG 3.3 Procedure Agents": "Perm",
        "SDTMIG 3.4 Procedure Agents": "Perm"
      }
    },
    "AGSPID": {
      "codelist": null,
      "code": null,
      "label": "Sponsor-Defined Identifier",
      "igs": [
        "SDTMIG 3.3",
        "SDTMIG 3.4"
      ],
      "core": {
        "SDTMIG 3.3 Procedure Agents": "Perm",
        "SDTMIG 3.4 Procedure Agents": "Perm"
      }
    },
    "AGLNKID": {
      "codelist": null,
      "code": null,
      "label": "Link ID",
      "igs": [
        "SDTMIG 3.3",
        "SDTMIG 3.4"
      ],
      "core": {
        "SDTMIG 3.3 Procedure Agents": "Perm",
        "SDTMIG 3.4 Procedure Agents": "Perm"
      }
    },
    "AGLNKGRP": {
      "codelist": null,
      "code": null,
      "label": "Link Group ID",
      "igs": [
        "SDTMIG 3.3",
        "SDTMIG 3.4"
      ],
      "core": {
        "SDTMIG 3.3 Procedure Agents": "Perm",
        "SDTMIG 3.4 Procedure Agents": "Perm"
      }
    },
    "AGTRT": {
      "codelist": null,
      "code": null,
      "label": "Reported Agent Name",
      "igs": [
        "SDTMIG 3.3",
        "SDTMIG 3.4"
      ],
      "core": {
        "SDTMIG 3.3 Procedure Agents": "Req",
        "SDTMIG 3.4 Procedure Agents": "Req"
      }
    },
    "AGMODIFY": {
      "codelist": null,
      "code": null,
      "label": "Modified Reported Name",
      "igs": [
        "SDTMIG 3.3",
        "SDTMIG 3.4"
      ],
      "core": {
        "SDTMIG 3.3 Procedure Agents": "Perm",
        "SDTMIG 3.4 Procedure Agents": "Perm"
      }
    },
    "AGDECOD": {
      "codelist": null,
      "code": null,
      "label": "Standardized Agent Name",
      "igs": [
        "SDTMIG 3.3",
        "SDTMIG 3.4"
      ],
      "core": {
        "SDTMIG 3.3 Procedure Agents": "Perm",
        "SDTMIG 3.4 Procedure Agents": "Perm"
      }
    },
    "AGCAT": {
      "codelist": null,
      "code": null,
      "label": "Category for Agent",
      "igs": [
        "SDTMIG 3.3",
        "SDTMIG 3.4"
      ],
      "core": {
        "SDTMIG 3.3 Procedure Agents": "Perm",
        "SDTMIG 3.4 Procedure Agents": "Perm"
      }
    },
    "AGSCAT": {
      "codelist": null,
      "code": null,
      "label": "Subcategory for Agent",
      "igs": [
        "SDTMIG 3.3",
        "SDTMIG 3.4"
      ],
      "core": {
        "SDTMIG 3.3 Procedure Agents": "Perm",
        "SDTMIG 3.4 Procedure Agents": "Perm"
      }
    },
    "AGPRESP": {
      "codelist": "NY",
      "code": "C66742",
      "label": "AG Pre-Specified",
      "igs": [
        "SDTMIG 3.3",
        "SDTMIG 3.4"
      ],
      "core": {
        "SDTMIG 3.3 Procedure Agents": "Perm",
        "SDTMIG 3.4 Procedure Agents": "Perm"
      }
    },
    "AGOCCUR": {
      "codelist": "NY",
      "code": "C66742",
      "label": "AG Occurrence",
      "igs": [
        "SDTMIG 3.3",
        "SDTMIG 3.4"
      ],
      "core": {
        "SDTMIG 3.3 Procedure Agents": "Perm",
        "SDTMIG 3.4 Procedure Agents": "Perm"
      }
    },
    "AGSTAT": {
      "codelist": "ND",
      "code": "C66789",
      "label": "Completion Status",
      "igs": [
        "SDTMIG 3.3",
        "SDTMIG 3.4"
      ],
      "core": {
        "SDTMIG 3.3 Procedure Agents": "Perm",
        "SDTMIG 3.4 Procedure Agents": "Perm"
      }
    },
    "AGREASND": {
      "codelist": null,
      "code": null,
      "label": "Reason Procedure Agent Not Collected",
      "igs": [
        "SDTMIG 3.3",
        "SDTMIG 3.4"
      ],
      "core": {
        "SDTMIG 3.3 Procedure Agents": "Perm",
        "SDTMIG 3.4 Procedure Agents": "Perm"
      }
    },
    "AGCLAS": {
      "codelist": null,
      "code": null,
      "label": "Agent Class",
      "igs": [
        "SDTMIG 3.3",
        "SDTMIG 3.4"
      ],
      "core": {
        "SDTMIG 3.3 Procedure Agents": "Perm",
        "SDTMIG 3.4 Procedure Agents": "Perm"
      }
    },
    "AGCLASCD": {
      "codelist": null,
      "code": null,
      "label": "Agent Class Code",
      "igs": [
        "SDTMIG 3.3",
        "SDTMIG 3.4"
      ],
      "core": {
        "SDTMIG 3.3 Procedure Agents": "Perm",
        "SDTMIG 3.4 Procedure Agents": "Perm"
      }
    },
    "AGDOSE": {
      "codelist": null,
      "code": null,
      "label": "Dose per Administration",
      "igs": [
        "SDTMIG 3.3",
        "SDTMIG 3.4"
      ],
      "core": {
        "SDTMIG 3.3 Procedure Agents": "Perm",
        "SDTMIG 3.4 Procedure Agents": "Perm"
      }
    },
    "AGDOSTXT": {
      "codelist": null,
      "code": null,
      "label": "Dose Description",
      "igs": [
        "SDTMIG 3.3",
        "SDTMIG 3.4"
      ],
      "core": {
        "SDTMIG 3.3 Procedure Agents": "Perm",
        "SDTMIG 3.4 Procedure Agents": "Perm"
      }
    },
    "AGDOSU": {
      "codelist": "UNIT",
      "code": "C71620",
      "label": "Dose Units",
      "igs": [
        "SDTMIG 3.3",
        "SDTMIG 3.4"
      ],
      "core": {
        "SDTMIG 3.3 Procedure Agents": "Perm",
        "SDTMIG 3.4 Procedure Agents": "Perm"
      }
    },
    "AGDOSFRM": {
      "codelist": "FRM",
      "code": "C66726",
      "label": "Dose Form",
      "igs": [
        "SDTMIG 3.3",
        "SDTMIG 3.4"
      ],
      "core": {
        "SDTMIG 3.3 Procedure Agents": "Perm",
        "SDTMIG 3.4 Procedure Agents": "Perm"
      }
    },
    "AGDOSFRQ": {
      "codelist": "FREQ",
      "code": "C71113",
      "label": "Dosing Frequency per Interval",
      "igs": [
        "SDTMIG 3.3",
        "SDTMIG 3.4"
      ],
      "core": {
        "SDTMIG 3.3 Procedure Agents": "Perm",
        "SDTMIG 3.4 Procedure Agents": "Perm"
      }
    },
    "AGROUTE": {
      "codelist": "ROUTE",
      "code": "C66729",
      "label": "Route of Administration",
      "igs": [
        "SDTMIG 3.3",
        "SDTMIG 3.4"
      ],
      "core": {
        "SDTMIG 3.3 Procedure Agents": "Perm",
        "SDTMIG 3.4 Procedure Agents": "Perm"
      }
    },
    "AGSTDTC": {
      "codelist": null,
      "code": null,
      "label": "Start Date/Time of Agent",
      "igs": [
        "SDTMIG 3.3",
        "SDTMIG 3.4"
      ],
      "core": {
        "SDTMIG 3.3 Procedure Agents": "Perm",
        "SDTMIG 3.4 Procedure Agents": "Perm"
      }
    },
    "AGENDTC": {
      "codelist": null,
      "code": null,
      "label": "End Date/Time of Agent",
      "igs": [
        "SDTMIG 3.3",
        "SDTMIG 3.4"
      ],
      "core": {
        "SDTMIG 3.3 Procedure Agents": "Perm",
        "SDTMIG 3.4 Procedure Agents": "Perm"
      }
    },
    "AGSTDY": {
      "codelist": null,
      "code": null,
      "label": "Study Day of Start of Agent",
      "igs": [
        "SDTMIG 3.3",
        "SDTMIG 3.4"
      ],
      "core": {
        "SDTMIG 3.3 Procedure Agents": "Perm",
        "SDTMIG 3.4 Procedure Agents": "Perm"
      }
    },
    "AGENDY": {
      "codelist": null,
      "code": null,
      "label": "Study Day of End of Agent",
      "igs": [
        "SDTMIG 3.3",
        "SDTMIG 3.4"
      ],
      "core": {
        "SDTMIG 3.3 Procedure Agents": "Perm",
        "SDTMIG 3.4 Procedure Agents": "Perm"
      }
    },
    "AGDUR": {
      "codelist": null,
      "code": null,
      "label": "Duration of Agent",
      "igs": [
        "SDTMIG 3.3",
        "SDTMIG 3.4"
      ],
      "core": {
        "SDTMIG 3.3 Procedure Agents": "Perm",
        "SDTMIG 3.4 Procedure Agents": "Perm"
      }
    },
    "AGSTRF": {
      "codelist": "STENRF",
      "code": "C66728",
      "label": "Start Relative to Reference Period",
      "igs": [
        "SDTMIG 3.3",
        "SDTMIG 3.4"
      ],
      "core": {
        "SDTMIG 3.3 Procedure Agents": "Perm",
        "SDTMIG 3.4 Procedure Agents": "Perm"
      }
    },
    "AGENRF": {
      "codelist": "STENRF",
      "code": "C66728",
      "label": "End Relative to Reference Period",
      "igs": [
        "SDTMIG 3.3",
        "SDTMIG 3.4"
      ],
      "core": {
        "SDTMIG 3.3 Procedure Agents": "Perm",
        "SDTMIG 3.4 Procedure Agents": "Perm"
      }
    },
    "AGSTRTPT": {
      "codelist": "STENRF",
      "code": "C66728",
      "label": "Start Relative to Reference Time Point",
      "igs": [
        "SDTMIG 3.3",
        "SDTMIG 3.4"
      ],
      "core": {
        "SDTMIG 3.3 Procedure Agents": "Perm",
        "SDTMIG 3.4 Procedure Agents": "Perm"
      }
    },
    "AGSTTPT": {
      "codelist": null,
      "code": null,
      "label": "Start Reference Time Point",
      "igs": [
        "SDTMIG 3.3",
        "SDTMIG 3.4"
      ],
      "core": {
        "SDTMIG 3.3 Procedure Agents": "Perm",
        "SDTMIG 3.4 Procedure Agents": "Perm"
      }
    },
    "AGENRTPT": {
      "codelist": "STENRF",
      "code": "C66728",
      "label": "End Relative to Reference Time Point",
      "igs": [
        "SDTMIG 3.3",
        "SDTMIG 3.4"
      ],
      "core": {
        "SDTMIG 3.3 Procedure Agents": "Perm",
        "SDTMIG 3.4 Procedure Agents": "Perm"
      }
    },
    "AGENTPT": {
      "codelist": null,
      "code": null,
      "label": "End Reference Time Point",
      "igs": [
        "SDTMIG 3.3",
        "SDTMIG 3.4"
      ],
      "core": {
        "SDTMIG 3.3 Procedure Agents": "Perm",
        "SDTMIG 3.4 Procedure Agents": "Perm"
      }
    },
    "CMSEQ": {
      "codelist": null,
      "code": null,
      "label": "Sequence Number",
      "igs": [
        "SDTMIG 3.3",
        "SDTMIG 3.4"
      ],
      "core": {
        "SDTMIG 3.3 Concomitant/Prior Medications": "Req",
        "SDTMIG 3.4 Concomitant/Prior Medications": "Req"
      }
    },
    "CMGRPID": {
      "codelist": null,
      "code": null,
      "label": "Group ID",
      "igs": [
        "SDTMIG 3.3",
        "SDTMIG 3.4"
      ],
      "core": {
        "SDTMIG 3.3 Concomitant/Prior Medications": "Perm",
        "SDTMIG 3.4 Concomitant/Prior Medications": "Perm"
      }
    },
    "CMSPID": {
      "codelist": null,
      "code": null,
      "label": "Sponsor-Defined Identifier",
      "igs": [
        "SDTMIG 3.3",
        "SDTMIG 3.4"
      ],
      "core": {
        "SDTMIG 3.3 Concomitant/Prior Medications": "Perm",
        "SDTMIG 3.4 Concomitant/Prior Medications": "Perm"
      }
    },
    "CMTRT": {
      "codelist": null,
      "code": null,
      "label": "Reported Name of Drug, Med, or Therapy",
      "igs": [
        "SDTMIG 3.3",
        "SDTMIG 3.4"
      ],
      "core": {
        "SDTMIG 3.3 Concomitant/Prior Medications": "Req",
        "SDTMIG 3.4 Concomitant/Prior Medications": "Req"
      }
    },
    "CMMODIFY": {
      "codelist": null,
      "code": null,
      "label": "Modified Reported Name",
      "igs": [
        "SDTMIG 3.3",
        "SDTMIG 3.4"
      ],
      "core": {
        "SDTMIG 3.3 Concomitant/Prior Medications": "Perm",
        "SDTMIG 3.4 Concomitant/Prior Medications": "Perm"
      }
    },
    "CMDECOD": {
      "codelist": null,
      "code": null,
      "label": "Standardized Medication Name",
      "igs": [
        "SDTMIG 3.3",
        "SDTMIG 3.4"
      ],
      "core": {
        "SDTMIG 3.3 Concomitant/Prior Medications": "Perm",
        "SDTMIG 3.4 Concomitant/Prior Medications": "Perm"
      }
    },
    "CMCAT": {
      "codelist": null,
      "code": null,
      "label": "Category for Medication",
      "igs": [
        "SDTMIG 3.3",
        "SDTMIG 3.4"
      ],
      "core": {
        "SDTMIG 3.3 Concomitant/Prior Medications": "Perm",
        "SDTMIG 3.4 Concomitant/Prior Medications": "Perm"
      }
    },
    "CMSCAT": {
      "codelist": null,
      "code": null,
      "label": "Subcategory for Medication",
      "igs": [
        "SDTMIG 3.3",
        "SDTMIG 3.4"
      ],
      "core": {
        "SDTMIG 3.3 Concomitant/Prior Medications": "Perm",
        "SDTMIG 3.4 Concomitant/Prior Medications": "Perm"
      }
    },
    "CMPRESP": {
      "codelist": "NY",
      "code": "C66742",
      "label": "CM Pre-specified",
      "igs": [
        "SDTMIG 3.3",
        "SDTMIG 3.4"
      ],
      "core": {
        "SDTMIG 3.3 Concomitant/Prior Medications": "Perm",
        "SDTMIG 3.4 Concomitant/Prior Medications": "Perm"
      }
    },
    "CMOCCUR": {
      "codelist": "NY",
      "code": "C66742",
      "label": "CM Occurrence",
      "igs": [
        "SDTMIG 3.3",
        "SDTMIG 3.4"
      ],
      "core": {
        "SDTMIG 3.3 Concomitant/Prior Medications": "Perm",
        "SDTMIG 3.4 Concomitant/Prior Medications": "Perm"
      }
    },
    "CMSTAT": {
      "codelist": "ND",
      "code": "C66789",
      "label": "Completion Status",
      "igs": [
        "SDTMIG 3.3",
        "SDTMIG 3.4"
      ],
      "core": {
        "SDTMIG 3.3 Concomitant/Prior Medications": "Perm",
        "SDTMIG 3.4 Concomitant/Prior Medications": "Perm"
      }
    },
    "CMREASND": {
      "codelist": null,
      "code": null,
      "label": "Reason Medication Not Collected",
      "igs": [
        "SDTMIG 3.3",
        "SDTMIG 3.4"
      ],
      "core": {
        "SDTMIG 3.3 Concomitant/Prior Medications": "Perm",
        "SDTMIG 3.4 Concomitant/Prior Medications": "Perm"
      }
    },
    "CMINDC": {
      "codelist": null,
      "code": null,
      "label": "Indication",
      "igs": [
        "SDTMIG 3.3",
        "SDTMIG 3.4"
      ],
      "core": {
        "SDTMIG 3.3 Concomitant/Prior Medications": "Perm",
        "SDTMIG 3.4 Concomitant/Prior Medications": "Perm"
      }
    },
    "CMCLAS": {
      "codelist": null,
      "code": null,
      "label": "Medication Class",
      "igs": [
        "SDTMIG 3.3",
        "SDTMIG 3.4"
      ],
      "core": {
        "SDTMIG 3.3 Concomitant/Prior Medications": "Perm",
        "SDTMIG 3.4 Concomitant/Prior Medications": "Perm"
      }
    },
    "CMCLASCD": {
      "codelist": null,
      "code": null,
      "label": "Medication Class Code",
      "igs": [
        "SDTMIG 3.3",
        "SDTMIG 3.4"
      ],
      "core": {
        "SDTMIG 3.3 Concomitant/Prior Medications": "Perm",
        "SDTMIG 3.4 Concomitant/Prior Medications": "Perm"
      }
    },
    "CMDOSE": {
      "codelist": null,
      "code": null,
      "label": "Dose per Administration",
      "igs": [
        "SDTMIG 3.3",
        "SDTMIG 3.4"
      ],
      "core": {
        "SDTMIG 3.3 Concomitant/Prior Medications": "Perm",
        "SDTMIG 3.4 Concomitant/Prior Medications": "Perm"
      }
    },
    "CMDOSTXT": {
      "codelist": null,
      "code": null,
      "label": "Dose Description",
      "igs": [
        "SDTMIG 3.3",
        "SDTMIG 3.4"
      ],
      "core": {
        "SDTMIG 3.3 Concomitant/Prior Medications": "Perm",
        "SDTMIG 3.4 Concomitant/Prior Medications": "Perm"
      }
    },
    "CMDOSU": {
      "codelist": "UNIT",
      "code": "C71620",
      "label": "Dose Units",
      "igs": [
        "SDTMIG 3.3",
        "SDTMIG 3.4"
      ],
      "core": {
        "SDTMIG 3.3 Concomitant/Prior Medications": "Perm",
        "SDTMIG 3.4 Concomitant/Prior Medications": "Perm"
      }
    },
    "CMDOSFRM": {
      "codelist": "FRM",
      "code": "C66726",
      "label": "Dose Form",
      "igs": [
        "SDTMIG 3.3",
        "SDTMIG 3.4"
      ],
      "core": {
        "SDTMIG 3.3 Concomitant/Prior Medications": "Perm",
        "SDTMIG 3.4 Concomitant/Prior Medications": "Perm"
      }
    },
    "CMDOSFRQ": {
      "codelist": "FREQ",
      "code": "C71113",
      "label": "Dosing Frequency per Interval",
      "igs": [
        "SDTMIG 3.3",
        "SDTMIG 3.4"
      ],
      "core": {
        "SDTMIG 3.3 Concomitant/Prior Medications": "Perm",
        "SDTMIG 3.4 Concomitant/Prior Medications": "Perm"
      }
    },
    "CMDOSTOT": {
      "codelist": null,
      "code": null,
      "label": "Total Daily Dose",
      "igs": [
        "SDTMIG 3.3",
        "SDTMIG 3.4"
      ],
      "core": {
        "SDTMIG 3.3 Concomitant/Prior Medications": "Perm",
        "SDTMIG 3.4 Concomitant/Prior Medications": "Perm"
      }
    },
    "CMDOSRGM": {
      "codelist": null,
      "code": null,
      "label": "Intended Dose Regimen",
      "igs": [
        "SDTMIG 3.3",
        "SDTMIG 3.4"
      ],
      "core": {
        "SDTMIG 3.3 Concomitant/Prior Medications": "Perm",
        "SDTMIG 3.4 Concomitant/Prior Medications": "Perm"
      }
    },
    "CMROUTE": {
      "codelist": "ROUTE",
      "code": "C66729",
      "label": "Route of Administration",
      "igs": [
        "SDTMIG 3.3",
        "SDTMIG 3.4"
      ],
      "core": {
        "SDTMIG 3.3 Concomitant/Prior Medications": "Perm",
        "SDTMIG 3.4 Concomitant/Prior Medications": "Perm"
      }
    },
    "CMADJ": {
      "codelist": null,
      "code": null,
      "label": "Reason for Dose Adjustment",
      "igs": [
        "SDTMIG 3.3",
        "SDTMIG 3.4"
      ],
      "core": {
        "SDTMIG 3.3 Concomitant/Prior Medications": "Perm",
        "SDTMIG 3.4 Concomitant/Prior Medications": "Perm"
      }
    },
    "CMRSDISC": {
      "codelist": null,
      "code": null,
      "label": "Reason the Intervention Was Discontinued",
      "igs": [
        "SDTMIG 3.3",
        "SDTMIG 3.4"
      ],
      "core": {
        "SDTMIG 3.3 Concomitant/Prior Medications": "Perm",
        "SDTMIG 3.4 Concomitant/Prior Medications": "Perm"
      }
    },
    "CMSTDTC": {
      "codelist": null,
      "code": null,
      "label": "Start Date/Time of Medication",
      "igs": [
        "SDTMIG 3.3",
        "SDTMIG 3.4"
      ],
      "core": {
        "SDTMIG 3.3 Concomitant/Prior Medications": "Perm",
        "SDTMIG 3.4 Concomitant/Prior Medications": "Perm"
      }
    },
    "CMENDTC": {
      "codelist": null,
      "code": null,
      "label": "End Date/Time of Medication",
      "igs": [
        "SDTMIG 3.3",
        "SDTMIG 3.4"
      ],
      "core": {
        "SDTMIG 3.3 Concomitant/Prior Medications": "Perm",
        "SDTMIG 3.4 Concomitant/Prior Medications": "Perm"
      }
    },
    "CMSTDY": {
      "codelist": null,
      "code": null,
      "label": "Study Day of Start of Medication",
      "igs": [
        "SDTMIG 3.3",
        "SDTMIG 3.4"
      ],
      "core": {
        "SDTMIG 3.3 Concomitant/Prior Medications": "Perm",
        "SDTMIG 3.4 Concomitant/Prior Medications": "Perm"
      }
    },
    "CMENDY": {
      "codelist": null,
      "code": null,
      "label": "Study Day of End of Medication",
      "igs": [
        "SDTMIG 3.3",
        "SDTMIG 3.4"
      ],
      "core": {
        "SDTMIG 3.3 Concomitant/Prior Medications": "Perm",
        "SDTMIG 3.4 Concomitant/Prior Medications": "Perm"
      }
    },
    "CMDUR": {
      "codelist": null,
      "code": null,
      "label": "Duration",
      "igs": [
        "SDTMIG 3.3",
        "SDTMIG 3.4"
      ],
      "core": {
        "SDTMIG 3.3 Concomitant/Prior Medications": "Perm",
        "SDTMIG 3.4 Concomitant/Prior Medications": "Perm"
      }
    },
    "CMSTRF": {
      "codelist": "STENRF",
      "code": "C66728",
      "label": "Start Relative to Reference Period",
      "igs": [
        "SDTMIG 3.3",
        "SDTMIG 3.4"
      ],
      "core": {
        "SDTMIG 3.3 Concomitant/Prior Medications": "Perm",
        "SDTMIG 3.4 Concomitant/Prior Medications": "Perm"
      }
    },
    "CMENRF": {
      "codelist": "STENRF",
      "code": "C66728",
      "label": "End Relative to Reference Period",
      "igs": [
        "SDTMIG 3.3",
        "SDTMIG 3.4"
      ],
      "core": {
        "SDTMIG 3.3 Concomitant/Prior Medications": "Perm",
        "SDTMIG 3.4 Concomitant/Prior Medications": "Perm"
      }
    },
    "CMSTRTPT": {
      "codelist": "STENRF",
      "code": "C66728",
      "label": "Start Relative to Reference Time Point",
      "igs": [
        "SDTMIG 3.3",
        "SDTMIG 3.4"
      ],
      "core": {
        "SDTMIG 3.3 Concomitant/Prior Medications": "Perm",
        "SDTMIG 3.4 Concomitant/Prior Medications": "Perm"
      }
    },
    "CMSTTPT": {
      "codelist": null,
      "code": null,
      "label": "Start Reference Time Point",
      "igs": [
        "SDTMIG 3.3",
        "SDTMIG 3.4"
      ],
      "core": {
        "SDTMIG 3.3 Concomitant/Prior Medications": "Perm",
        "SDTMIG 3.4 Concomitant/Prior Medications": "Perm"
      }
    },
    "CMENRTPT": {
      "codelist": "STENRF",
      "code": "C66728",
      "label": "End Relative to Reference Time Point",
      "igs": [
        "SDTMIG 3.3",
        "SDTMIG 3.4"
      ],
      "core": {
        "SDTMIG 3.3 Concomitant/Prior Medications": "Perm",
        "SDTMIG 3.4 Concomitant/Prior Medications": "Perm"
      }
    },
    "CMENTPT": {
      "codelist": null,
      "code": null,
      "label": "End Reference Time Point",
      "igs": [
        "SDTMIG 3.3",
        "SDTMIG 3.4"
      ],
      "core": {
        "SDTMIG 3.3 Concomitant/Prior Medications": "Perm",
        "SDTMIG 3.4 Concomitant/Prior Medications": "Perm"
      }
    },
    "EXSEQ": {
      "codelist": null,
      "code": null,
      "label": "Sequence Number",
      "igs": [
        "SDTMIG 3.3",
        "SDTMIG 3.4"
      ],
      "core": {
        "SDTMIG 3.3 Exposure": "Req",
        "SDTMIG 3.4 Exposure": "Req"
      }
    },
    "EXGRPID": {
      "codelist": null,
      "code": null,
      "label": "Group ID",
      "igs": [
        "SDTMIG 3.3",
        "SDTMIG 3.4"
      ],
      "core": {
        "SDTMIG 3.3 Exposure": "Perm",
        "SDTMIG 3.4 Exposure": "Perm"
      }
    },
    "EXREFID": {
      "codelist": null,
      "code": null,
      "label": "Reference ID",
      "igs": [
        "SDTMIG 3.3",
        "SDTMIG 3.4"
      ],
      "core": {
        "SDTMIG 3.3 Exposure": "Perm",
        "SDTMIG 3.4 Exposure": "Perm"
      }
    },
    "EXSPID": {
      "codelist": null,
      "code": null,
      "label": "Sponsor-Defined Identifier",
      "igs": [
        "SDTMIG 3.3",
        "SDTMIG 3.4"
      ],
      "core": {
        "SDTMIG 3.3 Exposure": "Perm",
        "SDTMIG 3.4 Exposure": "Perm"
      }
    },
    "EXLNKID": {
      "codelist": null,
      "code": null,
      "label": "Link ID",
      "igs": [
        "SDTMIG 3.3",
        "SDTMIG 3.4"
      ],
      "core": {
        "SDTMIG 3.3 Exposure": "Perm",
        "SDTMIG 3.4 Exposure": "Perm"
      }
    },
    "EXLNKGRP": {
      "codelist": null,
      "code": null,
      "label": "Link Group ID",
      "igs": [
        "SDTMIG 3.3",
        "SDTMIG 3.4"
      ],
      "core": {
        "SDTMIG 3.3 Exposure": "Perm",
        "SDTMIG 3.4 Exposure": "Perm"
      }
    },
    "EXTRT": {
      "codelist": null,
      "code": null,
      "label": "Name of Treatment",
      "igs": [
        "SDTMIG 3.3",
        "SDTMIG 3.4"
      ],
      "core": {
        "SDTMIG 3.3 Exposure": "Req",
        "SDTMIG 3.4 Exposure": "Req"
      }
    },
    "EXCAT": {
      "codelist": null,
      "code": null,
      "label": "Category of Treatment",
      "igs": [
        "SDTMIG 3.3",
        "SDTMIG 3.4"
      ],
      "core": {
        "SDTMIG 3.3 Exposure": "Perm",
        "SDTMIG 3.4 Exposure": "Perm"
      }
    },
    "EXSCAT": {
      "codelist": null,
      "code": null,
      "label": "Subcategory of Treatment",
      "igs": [
        "SDTMIG 3.3",
        "SDTMIG 3.4"
      ],
      "core": {
        "SDTMIG 3.3 Exposure": "Perm",
        "SDTMIG 3.4 Exposure": "Perm"
      }
    },
    "EXDOSE": {
      "codelist": null,
      "code": null,
      "label": "Dose",
      "igs": [
        "SDTMIG 3.3",
        "SDTMIG 3.4"
      ],
      "core": {
        "SDTMIG 3.3 Exposure": "Exp",
        "SDTMIG 3.4 Exposure": "Exp"
      }
    },
    "EXDOSTXT": {
      "codelist": null,
      "code": null,
      "label": "Dose Description",
      "igs": [
        "SDTMIG 3.3",
        "SDTMIG 3.4"
      ],
      "core": {
        "SDTMIG 3.3 Exposure": "Perm",
        "SDTMIG 3.4 Exposure": "Perm"
      }
    },
    "EXDOSU": {
      "codelist": "UNIT",
      "code": "C71620",
      "label": "Dose Units",
      "igs": [
        "SDTMIG 3.3",
        "SDTMIG 3.4"
      ],
      "core": {
        "SDTMIG 3.3 Exposure": "Exp",
        "SDTMIG 3.4 Exposure": "Exp"
      }
    },
    "EXDOSFRM": {
      "codelist": "FRM",
      "code": "C66726",
      "label": "Dose Form",
      "igs": [
        "SDTMIG 3.3",
        "SDTMIG 3.4"
      ],
      "core": {
        "SDTMIG 3.3 Exposure": "Exp",
        "SDTMIG 3.4 Exposure": "Exp"
      }
    },
    "EXDOSFRQ": {
      "codelist": "FREQ",
      "code": "C71113",
      "label": "Dosing Frequency per Interval",
      "igs": [
        "SDTMIG 3.3",
        "SDTMIG 3.4"
      ],
      "core": {
        "SDTMIG 3.3 Exposure": "Perm",
        "SDTMIG 3.4 Exposure": "Perm"
      }
    },
    "EXDOSRGM": {
      "codelist": null,
      "code": null,
      "label": "Intended Dose Regimen",
      "igs": [
        "SDTMIG 3.3",
        "SDTMIG 3.4"
      ],
      "core": {
        "SDTMIG 3.3 Exposure": "Perm",
        "SDTMIG 3.4 Exposure": "Perm"
      }
    },
    "EXROUTE": {
      "codelist": "ROUTE",
      "code": "C66729",
      "label": "Route of Administration",
      "igs": [
        "SDTMIG 3.3",
        "SDTMIG 3.4"
      ],
      "core": {
        "SDTMIG 3.3 Exposure": "Perm",
        "SDTMIG 3.4 Exposure": "Perm"
      }
    },
    "EXLOT": {
      "codelist": null,
      "code": null,
      "label": "Lot Number",
      "igs": [
        "SDTMIG 3.3",
        "SDTMIG 3.4"
      ],
      "core": {
        "SDTMIG 3.3 Exposure": "Perm",
        "SDTMIG 3.4 Exposure": "Perm"
      }
    },
    "EXLOC": {
      "codelist": "LOC",
      "code": "C74456",
      "label": "Location of Dose Administration",
      "igs": [
        "SDTMIG 3.3",
        "SDTMIG 3.4"
      ],
      "core": {
        "SDTMIG 3.3 Exposure": "Perm",
        "SDTMIG 3.4 Exposure": "Perm"
      }
    },
    "EXLAT": {
      "codelist": "LAT",
      "code": "C99073",
      "label": "Laterality",
      "igs": [
        "SDTMIG 3.3",
        "SDTMIG 3.4"
      ],
      "core": {
        "SDTMIG 3.3 Exposure": "Perm",
        "SDTMIG 3.4 Exposure": "Perm"
      }
    },
    "EXDIR": {
      "codelist": "DIR",
      "code": "C99074",
      "label": "Directionality",
      "igs": [
        "SDTMIG 3.3",
        "SDTMIG 3.4"
      ],
      "core": {
        "SDTMIG 3.3 Exposure": "Perm",
        "SDTMIG 3.4 Exposure": "Perm"
      }
    },
    "EXFAST": {
      "codelist": "NY",
      "code": "C66742",
      "label": "Fasting Status",
      "igs": [
        "SDTMIG 3.3",
        "SDTMIG 3.4"
      ],
      "core": {
        "SDTMIG 3.3 Exposure": "Perm",
        "SDTMIG 3.4 Exposure": "Perm"
      }
    },
    "EXADJ": {
      "codelist": null,
      "code": null,
      "label": "Reason for Dose Adjustment",
      "igs": [
        "SDTMIG 3.3",
        "SDTMIG 3.4"
      ],
      "core": {
        "SDTMIG 3.3 Exposure": "Perm",
        "SDTMIG 3.4 Exposure": "Perm"
      }
    },
    "EXSTDTC": {
      "codelist": null,
      "code": null,
      "label": "Start Date/Time of Treatment",
      "igs": [
        "SDTMIG 3.3",
        "SDTMIG 3.4"
      ],
      "core": {
        "SDTMIG 3.3 Exposure": "Exp",
        "SDTMIG 3.4 Exposure": "Exp"
      }
    },
    "EXENDTC": {
      "codelist": null,
      "code": null,
      "label": "End Date/Time of Treatment",
      "igs": [
        "SDTMIG 3.3",
        "SDTMIG 3.4"
      ],
      "core": {
        "SDTMIG 3.3 Exposure": "Exp",
        "SDTMIG 3.4 Exposure": "Exp"
      }
    },
    "EXSTDY": {
      "codelist": null,
      "code": null,
      "label": "Study Day of Start of Treatment",
      "igs": [
        "SDTMIG 3.3",
        "SDTMIG 3.4"
      ],
      "core": {
        "SDTMIG 3.3 Exposure": "Perm",
        "SDTMIG 3.4 Exposure": "Perm"
      }
    },
    "EXENDY": {
      "codelist": null,
      "code": null,
      "label": "Study Day of End of Treatment",
      "igs": [
        "SDTMIG 3.3",
        "SDTMIG 3.4"
      ],
      "core": {
        "SDTMIG 3.3 Exposure": "Perm",
        "SDTMIG 3.4 Exposure": "Perm"
      }
    },
    "EXDUR": {
      "codelist": null,
      "code": null,
      "label": "Duration of Treatment",
      "igs": [
        "SDTMIG 3.3",
        "SDTMIG 3.4"
      ],
      "core": {
        "SDTMIG 3.3 Exposure": "Perm",
        "SDTMIG 3.4 Exposure": "Perm"
      }
    },
    "EXTPT": {
      "codelist": null,
      "code": null,
      "label": "Planned Time Point Name",
      "igs": [
        "SDTMIG 3.3",
        "SDTMIG 3.4"
      ],
      "core": {
        "SDTMIG 3.3 Exposure": "Perm",
        "SDTMIG 3.4 Exposure": "Perm"
      }
    },
    "EXTPTNUM": {
      "codelist": null,
      "code": null,
      "label": "Planned Time Point Number",
      "igs": [
        "SDTMIG 3.3",
        "SDTMIG 3.4"
      ],
      "core": {
        "SDTMIG 3.3 Exposure": "Perm",
        "SDTMIG 3.4 Exposure": "Perm"
      }
    },
    "EXELTM": {
      "codelist": null,
      "code": null,
      "label": "Planned Elapsed Time from Time Point Ref",
      "igs": [
        "SDTMIG 3.3",
        "SDTMIG 3.4"
      ],
      "core": {
        "SDTMIG 3.3 Exposure": "Perm",
        "SDTMIG 3.4 Exposure": "Perm"
      }
    },
    "EXTPTREF": {
      "codelist": null,
      "code": null,
      "label": "Time Point Reference",
      "igs": [
        "SDTMIG 3.3",
        "SDTMIG 3.4"
      ],
      "core": {
        "SDTMIG 3.3 Exposure": "Perm",
        "SDTMIG 3.4 Exposure": "Perm"
      }
    },
    "EXRFTDTC": {
      "codelist": null,
      "code": null,
      "label": "Date/Time of Reference Time Point",
      "igs": [
        "SDTMIG 3.3",
        "SDTMIG 3.4"
      ],
      "core": {
        "SDTMIG 3.3 Exposure": "Perm",
        "SDTMIG 3.4 Exposure": "Perm"
      }
    },
    "ECSEQ": {
      "codelist": null,
      "code": null,
      "label": "Sequence Number",
      "igs": [
        "SDTMIG 3.3",
        "SDTMIG 3.4"
      ],
      "core": {
        "SDTMIG 3.3 Exposure as Collected": "Req",
        "SDTMIG 3.4 Exposure as Collected": "Req"
      }
    },
    "ECGRPID": {
      "codelist": null,
      "code": null,
      "label": "Group ID",
      "igs": [
        "SDTMIG 3.3",
        "SDTMIG 3.4"
      ],
      "core": {
        "SDTMIG 3.3 Exposure as Collected": "Perm",
        "SDTMIG 3.4 Exposure as Collected": "Perm"
      }
    },
    "ECREFID": {
      "codelist": null,
      "code": null,
      "label": "Reference ID",
      "igs": [
        "SDTMIG 3.3",
        "SDTMIG 3.4"
      ],
      "core": {
        "SDTMIG 3.3 Exposure as Collected": "Perm",
        "SDTMIG 3.4 Exposure as Collected": "Perm"
      }
    },
    "ECSPID": {
      "codelist": null,
      "code": null,
      "label": "Sponsor-Defined Identifier",
      "igs": [
        "SDTMIG 3.3",
        "SDTMIG 3.4"
      ],
      "core": {
        "SDTMIG 3.3 Exposure as Collected": "Perm",
        "SDTMIG 3.4 Exposure as Collected": "Perm"
      }
    },
    "ECLNKID": {
      "codelist": null,
      "code": null,
      "label": "Link ID",
      "igs": [
        "SDTMIG 3.3",
        "SDTMIG 3.4"
      ],
      "core": {
        "SDTMIG 3.3 Exposure as Collected": "Perm",
        "SDTMIG 3.4 Exposure as Collected": "Perm"
      }
    },
    "ECLNKGRP": {
      "codelist": null,
      "code": null,
      "label": "Link Group ID",
      "igs": [
        "SDTMIG 3.3",
        "SDTMIG 3.4"
      ],
      "core": {
        "SDTMIG 3.3 Exposure as Collected": "Perm",
        "SDTMIG 3.4 Exposure as Collected": "Perm"
      }
    },
    "ECTRT": {
      "codelist": null,
      "code": null,
      "label": "Name of Treatment",
      "igs": [
        "SDTMIG 3.3",
        "SDTMIG 3.4"
      ],
      "core": {
        "SDTMIG 3.3 Exposure as Collected": "Req",
        "SDTMIG 3.4 Exposure as Collected": "Req"
      }
    },
    "ECMOOD": {
      "codelist": "BRDGMOOD",
      "code": "C125923",
      "label": "Mood",
      "igs": [
        "SDTMIG 3.3",
        "SDTMIG 3.4"
      ],
      "core": {
        "SDTMIG 3.3 Exposure as Collected": "Perm",
        "SDTMIG 3.4 Exposure as Collected": "Perm"
      }
    },
    "ECCAT": {
      "codelist": null,
      "code": null,
      "label": "Category of Treatment",
      "igs": [
        "SDTMIG 3.3",
        "SDTMIG 3.4"
      ],
      "core": {
        "SDTMIG 3.3 Exposure as Collected": "Perm",
        "SDTMIG 3.4 Exposure as Collected": "Perm"
      }
    },
    "ECSCAT": {
      "codelist": null,
      "code": null,
      "label": "Subcategory of Treatment",
      "igs": [
        "SDTMIG 3.3",
        "SDTMIG 3.4"
      ],
      "core": {
        "SDTMIG 3.3 Exposure as Collected": "Perm",
        "SDTMIG 3.4 Exposure as Collected": "Perm"
      }
    },
    "ECPRESP": {
      "codelist": "NY",
      "code": "C66742",
      "label": "Pre-Specified",
      "igs": [
        "SDTMIG 3.3",
        "SDTMIG 3.4"
      ],
      "core": {
        "SDTMIG 3.3 Exposure as Collected": "Perm",
        "SDTMIG 3.4 Exposure as Collected": "Perm"
      }
    },
    "ECOCCUR": {
      "codelist": "NY",
      "code": "C66742",
      "label": "Occurrence",
      "igs": [
        "SDTMIG 3.3",
        "SDTMIG 3.4"
      ],
      "core": {
        "SDTMIG 3.3 Exposure as Collected": "Perm",
        "SDTMIG 3.4 Exposure as Collected": "Perm"
      }
    },
    "ECDOSE": {
      "codelist": null,
      "code": null,
      "label": "Dose",
      "igs": [
        "SDTMIG 3.3",
        "SDTMIG 3.4"
      ],
      "core": {
        "SDTMIG 3.3 Exposure as Collected": "Exp",
        "SDTMIG 3.4 Exposure as Collected": "Exp"
      }
    },
    "ECDOSTXT": {
      "codelist": null,
      "code": null,
      "label": "Dose Description",
      "igs": [
        "SDTMIG 3.3",
        "SDTMIG 3.4"
      ],
      "core": {
        "SDTMIG 3.3 Exposure as Collected": "Perm",
        "SDTMIG 3.4 Exposure as Collected": "Perm"
      }
    },
    "ECDOSU": {
      "codelist": "UNIT",
      "code": "C71620",
      "label": "Dose Units",
      "igs": [
        "SDTMIG 3.3",
        "SDTMIG 3.4"
      ],
      "core": {
        "SDTMIG 3.3 Exposure as Collected": "Exp",
        "SDTMIG 3.4 Exposure as Collected": "Exp"
      }
    },
    "ECDOSFRM": {
      "codelist": "FRM",
      "code": "C66726",
      "label": "Dose Form",
      "igs": [
        "SDTMIG 3.3",
        "SDTMIG 3.4"
      ],
      "core": {
        "SDTMIG 3.3 Exposure as Collected": "Exp",
        "SDTMIG 3.4 Exposure as Collected": "Exp"
      }
    },
    "ECDOSFRQ": {
      "codelist": "FREQ",
      "code": "C71113",
      "label": "Dosing Frequency per Interval",
      "igs": [
        "SDTMIG 3.3",
        "SDTMIG 3.4"
      ],
      "core": {
        "SDTMIG 3.3 Exposure as Collected": "Perm",
        "SDTMIG 3.4 Exposure as Collected": "Perm"
      }
    },
    "ECDOSTOT": {
      "codelist": null,
      "code": null,
      "label": "Total Daily Dose",
      "igs": [
        "SDTMIG 3.3",
        "SDTMIG 3.4"
      ],
      "core": {
        "SDTMIG 3.3 Exposure as Collected": "Perm",
        "SDTMIG 3.4 Exposure as Collected": "Perm"
      }
    },
    "ECDOSRGM": {
      "codelist": null,
      "code": null,
      "label": "Intended Dose Regimen",
      "igs": [
        "SDTMIG 3.3",
        "SDTMIG 3.4"
      ],
      "core": {
        "SDTMIG 3.3 Exposure as Collected": "Perm",
        "SDTMIG 3.4 Exposure as Collected": "Perm"
      }
    },
    "ECROUTE": {
      "codelist": "ROUTE",
      "code": "C66729",
      "label": "Route of Administration",
      "igs": [
        "SDTMIG 3.3",
        "SDTMIG 3.4"
      ],
      "core": {
        "SDTMIG 3.3 Exposure as Collected": "Perm",
        "SDTMIG 3.4 Exposure as Collected": "Perm"
      }
    },
    "ECLOT": {
      "codelist": null,
      "code": null,
      "label": "Lot Number",
      "igs": [
        "SDTMIG 3.3",
        "SDTMIG 3.4"
      ],
      "core": {
        "SDTMIG 3.3 Exposure as Collected": "Perm",
        "SDTMIG 3.4 Exposure as Collected": "Perm"
      }
    },
    "ECLOC": {
      "codelist": "LOC",
      "code": "C74456",
      "label": "Location of Dose Administration",
      "igs": [
        "SDTMIG 3.3",
        "SDTMIG 3.4"
      ],
      "core": {
        "SDTMIG 3.3 Exposure as Collected": "Perm",
        "SDTMIG 3.4 Exposure as Collected": "Perm"
      }
    },
    "ECLAT": {
      "codelist": "LAT",
      "code": "C99073",
      "label": "Laterality",
      "igs": [
        "SDTMIG 3.3",
        "SDTMIG 3.4"
      ],
      "core": {
        "SDTMIG 3.3 Exposure as Collected": "Perm",
        "SDTMIG 3.4 Exposure as Collected": "Perm"
      }
    },
    "ECDIR": {
      "codelist": "DIR",
      "code": "C99074",
      "label": "Directionality",
      "igs": [
        "SDTMIG 3.3",
        "SDTMIG 3.4"
      ],
      "core": {
        "SDTMIG 3.3 Exposure as Collected": "Perm",
        "SDTMIG 3.4 Exposure as Collected": "Perm"
      }
    },
    "ECPORTOT": {
      "codelist": "PORTOT",
      "code": "C99075",
      "label": "Portion or Totality",
      "igs": [
        "SDTMIG 3.3",
        "SDTMIG 3.4"
      ],
      "core": {
        "SDTMIG 3.3 Exposure as Collected": "Perm",
        "SDTMIG 3.4 Exposure as Collected": "Perm"
      }
    },
    "ECFAST": {
      "codelist": "NY",
      "code": "C66742",
      "label": "Fasting Status",
      "igs": [
        "SDTMIG 3.3",
        "SDTMIG 3.4"
      ],
      "core": {
        "SDTMIG 3.3 Exposure as Collected": "Perm",
        "SDTMIG 3.4 Exposure as Collected": "Perm"
      }
    },
    "ECPSTRG": {
      "codelist": null,
      "code": null,
      "label": "Pharmaceutical Strength",
      "igs": [
        "SDTMIG 3.3",
        "SDTMIG 3.4"
      ],
      "core": {
        "SDTMIG 3.3 Exposure as Collected": "Perm",
        "SDTMIG 3.4 Exposure as Collected": "Perm"
      }
    },
    "ECPSTRGU": {
      "codelist": "UNIT",
      "code": "C71620",
      "label": "Pharmaceutical Strength Units",
      "igs": [
        "SDTMIG 3.3",
        "SDTMIG 3.4"
      ],
      "core": {
        "SDTMIG 3.3 Exposure as Collected": "Perm",
        "SDTMIG 3.4 Exposure as Collected": "Perm"
      }
    },
    "ECADJ": {
      "codelist": null,
      "code": null,
      "label": "Reason for Dose Adjustment",
      "igs": [
        "SDTMIG 3.3",
        "SDTMIG 3.4"
      ],
      "core": {
        "SDTMIG 3.3 Exposure as Collected": "Perm",
        "SDTMIG 3.4 Exposure as Collected": "Perm"
      }
    },
    "ECSTDTC": {
      "codelist": null,
      "code": null,
      "label": "Start Date/Time of Treatment",
      "igs": [
        "SDTMIG 3.3",
        "SDTMIG 3.4"
      ],
      "core": {
        "SDTMIG 3.3 Exposure as Collected": "Exp",
        "SDTMIG 3.4 Exposure as Collected": "Exp"
      }
    },
    "ECENDTC": {
      "codelist": null,
      "code": null,
      "label": "End Date/Time of Treatment",
      "igs": [
        "SDTMIG 3.3",
        "SDTMIG 3.4"
      ],
      "core": {
        "SDTMIG 3.3 Exposure as Collected": "Exp",
        "SDTMIG 3.4 Exposure as Collected": "Exp"
      }
    },
    "ECSTDY": {
      "codelist": null,
      "code": null,
      "label": "Study Day of Start of Treatment",
      "igs": [
        "SDTMIG 3.3",
        "SDTMIG 3.4"
      ],
      "core": {
        "SDTMIG 3.3 Exposure as Collected": "Perm",
        "SDTMIG 3.4 Exposure as Collected": "Perm"
      }
    },
    "ECENDY": {
      "codelist": null,
      "code": null,
      "label": "Study Day of End of Treatment",
      "igs": [
        "SDTMIG 3.3",
        "SDTMIG 3.4"
      ],
      "core": {
        "SDTMIG 3.3 Exposure as Collected": "Perm",
        "SDTMIG 3.4 Exposure as Collected": "Perm"
      }
    },
    "ECDUR": {
      "codelist": null,
      "code": null,
      "label": "Duration of Treatment",
      "igs": [
        "SDTMIG 3.3",
        "SDTMIG 3.4"
      ],
      "core": {
        "SDTMIG 3.3 Exposure as Collected": "Perm",
        "SDTMIG 3.4 Exposure as Collected": "Perm"
      }
    },
    "ECTPT": {
      "codelist": null,
      "code": null,
      "label": "Planned Time Point Name",
      "igs": [
        "SDTMIG 3.3",
        "SDTMIG 3.4"
      ],
      "core": {
        "SDTMIG 3.3 Exposure as Collected": "Perm",
        "SDTMIG 3.4 Exposure as Collected": "Perm"
      }
    },
    "ECTPTNUM": {
      "codelist": null,
      "code": null,
      "label": "Planned Time Point Number",
      "igs": [
        "SDTMIG 3.3",
        "SDTMIG 3.4"
      ],
      "core": {
        "SDTMIG 3.3 Exposure as Collected": "Perm",
        "SDTMIG 3.4 Exposure as Collected": "Perm"
      }
    },
    "ECELTM": {
      "codelist": null,
      "code": null,
      "label": "Planned Elapsed Time from Time Point Ref",
      "igs": [
        "SDTMIG 3.3",
        "SDTMIG 3.4"
      ],
      "core": {
        "SDTMIG 3.3 Exposure as Collected": "Perm",
        "SDTMIG 3.4 Exposure as Collected": "Perm"
      }
    },
    "ECTPTREF": {
      "codelist": null,
      "code": null,
      "label": "Time Point Reference",
      "igs": [
        "SDTMIG 3.3",
        "SDTMIG 3.4"
      ],
      "core": {
        "SDTMIG 3.3 Exposure as Collected": "Perm",
        "SDTMIG 3.4 Exposure as Collected": "Perm"
      }
    },
    "ECRFTDTC": {
      "codelist": null,
      "code": null,
      "label": "Date/Time of Reference Time Point",
      "igs": [
        "SDTMIG 3.3",
        "SDTMIG 3.4"
      ],
      "core": {
        "SDTMIG 3.3 Exposure as Collected": "Perm",
        "SDTMIG 3.4 Exposure as Collected": "Perm"
      }
    },
    "MLSEQ": {
      "codelist": null,
      "code": null,
      "label": "Sequence Number",
      "igs": [
        "SDTMIG 3.3",
        "SDTMIG 3.4"
      ],
      "core": {
        "SDTMIG 3.3 Meal Data": "Req",
        "SDTMIG 3.4 Meal Data": "Req"
      }
    },
    "MLGRPID": {
      "codelist": null,
      "code": null,
      "label": "Group ID",
      "igs": [
        "SDTMIG 3.3",
        "SDTMIG 3.4"
      ],
      "core": {
        "SDTMIG 3.3 Meal Data": "Perm",
        "SDTMIG 3.4 Meal Data": "Perm"
      }
    },
    "MLSPID": {
      "codelist": null,
      "code": null,
      "label": "Sponsor-Defined Identifier",
      "igs": [
        "SDTMIG 3.3",
        "SDTMIG 3.4"
      ],
      "core": {
        "SDTMIG 3.3 Meal Data": "Perm",
        "SDTMIG 3.4 Meal Data": "Perm"
      }
    },
    "MLTRT": {
      "codelist": null,
      "code": null,
      "label": "Name of Meal",
      "igs": [
        "SDTMIG 3.3",
        "SDTMIG 3.4"
      ],
      "core": {
        "SDTMIG 3.3 Meal Data": "Req",
        "SDTMIG 3.4 Meal Data": "Req"
      }
    },
    "MLCAT": {
      "codelist": null,
      "code": null,
      "label": "Category for Meal",
      "igs": [
        "SDTMIG 3.3",
        "SDTMIG 3.4"
      ],
      "core": {
        "SDTMIG 3.3 Meal Data": "Perm",
        "SDTMIG 3.4 Meal Data": "Perm"
      }
    },
    "MLSCAT": {
      "codelist": null,
      "code": null,
      "label": "Subcategory for Meal",
      "igs": [
        "SDTMIG 3.3",
        "SDTMIG 3.4"
      ],
      "core": {
        "SDTMIG 3.3 Meal Data": "Perm",
        "SDTMIG 3.4 Meal Data": "Perm"
      }
    },
    "MLPRESP": {
      "codelist": "NY",
      "code": "C66742",
      "label": "ML Pre-specified",
      "igs": [
        "SDTMIG 3.3",
        "SDTMIG 3.4"
      ],
      "core": {
        "SDTMIG 3.3 Meal Data": "Perm",
        "SDTMIG 3.4 Meal Data": "Perm"
      }
    },
    "MLOCCUR": {
      "codelist": "NY",
      "code": "C66742",
      "label": "ML Occurrence",
      "igs": [
        "SDTMIG 3.3",
        "SDTMIG 3.4"
      ],
      "core": {
        "SDTMIG 3.3 Meal Data": "Perm",
        "SDTMIG 3.4 Meal Data": "Perm"
      }
    },
    "MLSTAT": {
      "codelist": "ND",
      "code": "C66789",
      "label": "Completion Status",
      "igs": [
        "SDTMIG 3.3",
        "SDTMIG 3.4"
      ],
      "core": {
        "SDTMIG 3.3 Meal Data": "Perm",
        "SDTMIG 3.4 Meal Data": "Perm"
      }
    },
    "MLREASND": {
      "codelist": null,
      "code": null,
      "label": "Reason Meal Not Collected",
      "igs": [
        "SDTMIG 3.3",
        "SDTMIG 3.4"
      ],
      "core": {
        "SDTMIG 3.3 Meal Data": "Perm",
        "SDTMIG 3.4 Meal Data": "Perm"
      }
    },
    "MLDOSE": {
      "codelist": null,
      "code": null,
      "label": "Dose",
      "igs": [
        "SDTMIG 3.3",
        "SDTMIG 3.4"
      ],
      "core": {
        "SDTMIG 3.3 Meal Data": "Perm",
        "SDTMIG 3.4 Meal Data": "Perm"
      }
    },
    "MLDOSTXT": {
      "codelist": null,
      "code": null,
      "label": "Dose Description",
      "igs": [
        "SDTMIG 3.3",
        "SDTMIG 3.4"
      ],
      "core": {
        "SDTMIG 3.3 Meal Data": "Perm",
        "SDTMIG 3.4 Meal Data": "Perm"
      }
    },
    "MLDOSU": {
      "codelist": "UNIT",
      "code": "C71620",
      "label": "Dose Units",
      "igs": [
        "SDTMIG 3.3",
        "SDTMIG 3.4"
      ],
      "core": {
        "SDTMIG 3.3 Meal Data": "Perm",
        "SDTMIG 3.4 Meal Data": "Perm"
      }
    },
    "MLDOSFRM": {
      "codelist": "FRM",
      "code": "C66726",
      "label": "Dose Form",
      "igs": [
        "SDTMIG 3.3",
        "SDTMIG 3.4"
      ],
      "core": {
        "SDTMIG 3.3 Meal Data": "Perm",
        "SDTMIG 3.4 Meal Data": "Perm"
      }
    },
    "MLDTC": {
      "codelist": null,
      "code": null,
      "label": "Date/Time of Collection",
      "igs": [
        "SDTMIG 3.3",
        "SDTMIG 3.4"
      ],
      "core": {
        "SDTMIG 3.3 Meal Data": "Perm",
        "SDTMIG 3.4 Meal Data": "Perm"
      }
    },
    "MLSTDTC": {
      "codelist": null,
      "code": null,
      "label": "Start Date/Time of Meal",
      "igs": [
        "SDTMIG 3.3",
        "SDTMIG 3.4"
      ],
      "core": {
        "SDTMIG 3.3 Meal Data": "Perm",
        "SDTMIG 3.4 Meal Data": "Perm"
      }
    },
    "MLENDTC": {
      "codelist": null,
      "code": null,
      "label": "End Date/Time of Meal",
      "igs": [
        "SDTMIG 3.3",
        "SDTMIG 3.4"
      ],
      "core": {
        "SDTMIG 3.3 Meal Data": "Perm",
        "SDTMIG 3.4 Meal Data": "Perm"
      }
    },
    "MLDY": {
      "codelist": null,
      "code": null,
      "label": "Study Day of Visit/Collection/Exam",
      "igs": [
        "SDTMIG 3.3",
        "SDTMIG 3.4"
      ],
      "core": {
        "SDTMIG 3.3 Meal Data": "Perm",
        "SDTMIG 3.4 Meal Data": "Perm"
      }
    },
    "MLSTDY": {
      "codelist": null,
      "code": null,
      "label": "Study Day of Start of Meal",
      "igs": [
        "SDTMIG 3.3",
        "SDTMIG 3.4"
      ],
      "core": {
        "SDTMIG 3.3 Meal Data": "Perm",
        "SDTMIG 3.4 Meal Data": "Perm"
      }
    },
    "MLENDY": {
      "codelist": null,
      "code": null,
      "label": "Study Day of End of Meal",
      "igs": [
        "SDTMIG 3.3",
        "SDTMIG 3.4"
      ],
      "core": {
        "SDTMIG 3.3 Meal Data": "Perm",
        "SDTMIG 3.4 Meal Data": "Perm"
      }
    },
    "MLDUR": {
      "codelist": null,
      "code": null,
      "label": "Duration of Meal",
      "igs": [
        "SDTMIG 3.3",
        "SDTMIG 3.4"
      ],
      "core": {
        "SDTMIG 3.3 Meal Data": "Perm",
        "SDTMIG 3.4 Meal Data": "Perm"
      }
    },
    "MLTPT": {
      "codelist": null,
      "code": null,
      "label": "Planned Time Point Name",
      "igs": [
        "SDTMIG 3.3",
        "SDTMIG 3.4"
      ],
      "core": {
        "SDTMIG 3.3 Meal Data": "Perm",
        "SDTMIG 3.4 Meal Data": "Perm"
      }
    },
    "MLTPTNUM": {
      "codelist": null,
      "code": null,
      "label": "Planned Time Point Number",
      "igs": [
        "SDTMIG 3.3",
        "SDTMIG 3.4"
      ],
      "core": {
        "SDTMIG 3.3 Meal Data": "Perm",
        "SDTMIG 3.4 Meal Data": "Perm"
      }
    },
    "MLELTM": {
      "codelist": null,
      "code": null,
      "label": "Planned Elapsed Time from Time Point Ref",
      "igs": [
        "SDTMIG 3.3",
        "SDTMIG 3.4"
      ],
      "core": {
        "SDTMIG 3.3 Meal Data": "Perm",
        "SDTMIG 3.4 Meal Data": "Perm"
      }
    },
    "MLTPTREF": {
      "codelist": null,
      "code": null,
      "label": "Time Point Reference",
      "igs": [
        "SDTMIG 3.3",
        "SDTMIG 3.4"
      ],
      "core": {
        "SDTMIG 3.3 Meal Data": "Perm",
        "SDTMIG 3.4 Meal Data": "Perm"
      }
    },
    "MLRFTDTC": {
      "codelist": null,
      "code": null,
      "label": "Date/Time of Reference Time Point",
      "igs": [
        "SDTMIG 3.3",
        "SDTMIG 3.4"
      ],
      "core": {
        "SDTMIG 3.3 Meal Data": "Perm",
        "SDTMIG 3.4 Meal Data": "Perm"
      }
    },
    "RELMIDS": {
      "codelist": null,
      "code": null,
      "label": "Temporal Relation to Milestone Instance",
      "igs": [
        "SDTMIG 3.3",
        "SDTMIG 3.4"
      ],
      "core": {
        "SDTMIG 3.3 Meal Data": "Perm",
        "SDTMIG 3.4 Meal Data": "Perm"
      }
    },
    "MIDSDTC": {
      "codelist": null,
      "code": null,
      "label": "Disease Milestone Instance Date/Time",
      "igs": [
        "SDTMIG 3.3",
        "SDTMIG 3.4"
      ],
      "core": {
        "SDTMIG 3.3 Meal Data": "Perm",
        "SDTMIG 3.4 Meal Data": "Perm"
      }
    },
    "PRSEQ": {
      "codelist": null,
      "code": null,
      "label": "Sequence Number",
      "igs": [
        "SDTMIG 3.3",
        "SDTMIG 3.4"
      ],
      "core": {
        "SDTMIG 3.3 Procedures": "Req",
        "SDTMIG 3.4 Procedures": "Req"
      }
    },
    "PRGRPID": {
      "codelist": null,
      "code": null,
      "label": "Group ID",
      "igs": [
        "SDTMIG 3.3",
        "SDTMIG 3.4"
      ],
      "core": {
        "SDTMIG 3.3 Procedures": "Perm",
        "SDTMIG 3.4 Procedures": "Perm"
      }
    },
    "PRSPID": {
      "codelist": null,
      "code": null,
      "label": "Sponsor-Defined Identifier",
      "igs": [
        "SDTMIG 3.3",
        "SDTMIG 3.4"
      ],
      "core": {
        "SDTMIG 3.3 Procedures": "Perm",
        "SDTMIG 3.4 Procedures": "Perm"
      }
    },
    "PRLNKID": {
      "codelist": null,
      "code": null,
      "label": "Link ID",
      "igs": [
        "SDTMIG 3.3",
        "SDTMIG 3.4"
      ],
      "core": {
        "SDTMIG 3.3 Procedures": "Perm",
        "SDTMIG 3.4 Procedures": "Perm"
      }
    },
    "PRLNKGRP": {
      "codelist": null,
      "code": null,
      "label": "Link Group ID",
      "igs": [
        "SDTMIG 3.3",
        "SDTMIG 3.4"
      ],
      "core": {
        "SDTMIG 3.3 Procedures": "Perm",
        "SDTMIG 3.4 Procedures": "Perm"
      }
    },
    "PRTRT": {
      "codelist": null,
      "code": null,
      "label": "Reported Name of Procedure",
      "igs": [
        "SDTMIG 3.3",
        "SDTMIG 3.4"
      ],
      "core": {
        "SDTMIG 3.3 Procedures": "Req",
        "SDTMIG 3.4 Procedures": "Req"
      }
    },
    "PRDECOD": {
      "codelist": "PROCEDUR",
      "code": "C101858",
      "label": "Standardized Procedure Name",
      "igs": [
        "SDTMIG 3.3",
        "SDTMIG 3.4"
      ],
      "core": {
        "SDTMIG 3.3 Procedures": "Perm",
        "SDTMIG 3.4 Procedures": "Perm"
      }
    },
    "PRCAT": {
      "codelist": null,
      "code": null,
      "label": "Category",
      "igs": [
        "SDTMIG 3.3",
        "SDTMIG 3.4"
      ],
      "core": {
        "SDTMIG 3.3 Procedures": "Perm",
        "SDTMIG 3.4 Procedures": "Perm"
      }
    },
    "PRSCAT": {
      "codelist": null,
      "code": null,
      "label": "Subcategory",
      "igs": [
        "SDTMIG 3.3",
        "SDTMIG 3.4"
      ],
      "core": {
        "SDTMIG 3.3 Procedures": "Perm",
        "SDTMIG 3.4 Procedures": "Perm"
      }
    },
    "PRPRESP": {
      "codelist": "NY",
      "code": "C66742",
      "label": "Pre-specified",
      "igs": [
        "SDTMIG 3.3",
        "SDTMIG 3.4"
      ],
      "core": {
        "SDTMIG 3.3 Procedures": "Perm",
        "SDTMIG 3.4 Procedures": "Perm"
      }
    },
    "PROCCUR": {
      "codelist": "NY",
      "code": "C66742",
      "label": "Occurrence",
      "igs": [
        "SDTMIG 3.3",
        "SDTMIG 3.4"
      ],
      "core": {
        "SDTMIG 3.3 Procedures": "Perm",
        "SDTMIG 3.4 Procedures": "Perm"
      }
    },
    "PRINDC": {
      "codelist": null,
      "code": null,
      "label": "Indication",
      "igs": [
        "SDTMIG 3.3",
        "SDTMIG 3.4"
      ],
      "core": {
        "SDTMIG 3.3 Procedures": "Perm",
        "SDTMIG 3.4 Procedures": "Perm"
      }
    },
    "PRDOSE": {
      "codelist": null,
      "code": null,
      "label": "Dose",
      "igs": [
        "SDTMIG 3.3",
        "SDTMIG 3.4"
      ],
      "core": {
        "SDTMIG 3.3 Procedures": "Perm",
        "SDTMIG 3.4 Procedures": "Perm"
      }
    },
    "PRDOSTXT": {
      "codelist": null,
      "code": null,
      "label": "Dose Description",
      "igs": [
        "SDTMIG 3.3",
        "SDTMIG 3.4"
      ],
      "core": {
        "SDTMIG 3.3 Procedures": "Perm",
        "SDTMIG 3.4 Procedures": "Perm"
      }
    },
    "PRDOSU": {
      "codelist": "UNIT",
      "code": "C71620",
      "label": "Dose Units",
      "igs": [
        "SDTMIG 3.3",
        "SDTMIG 3.4"
      ],
      "core": {
        "SDTMIG 3.3 Procedures": "Perm",
        "SDTMIG 3.4 Procedures": "Perm"
      }
    },
    "PRDOSFRM": {
      "codelist": "FRM",
      "code": "C66726",
      "label": "Dose Form",
      "igs": [
        "SDTMIG 3.3",
        "SDTMIG 3.4"
      ],
      "core": {
        "SDTMIG 3.3 Procedures": "Perm",
        "SDTMIG 3.4 Procedures": "Perm"
      }
    },
    "PRDOSFRQ": {
      "codelist": "FREQ",
      "code": "C71113",
      "label": "Dosing Frequency per Interval",
      "igs": [
        "SDTMIG 3.3",
        "SDTMIG 3.4"
      ],
      "core": {
        "SDTMIG 3.3 Procedures": "Perm",
        "SDTMIG 3.4 Procedures": "Perm"
      }
    },
    "PRDOSRGM": {
      "codelist": null,
      "code": null,
      "label": "Intended Dose Regimen",
      "igs": [
        "SDTMIG 3.3",
        "SDTMIG 3.4"
      ],
      "core": {
        "SDTMIG 3.3 Procedures": "Perm",
        "SDTMIG 3.4 Procedures": "Perm"
      }
    },
    "PRROUTE": {
      "codelist": "ROUTE",
      "code": "C66729",
      "label": "Route of Administration",
      "igs": [
        "SDTMIG 3.3",
        "SDTMIG 3.4"
      ],
      "core": {
        "SDTMIG 3.3 Procedures": "Perm",
        "SDTMIG 3.4 Procedures": "Perm"
      }
    },
    "PRLOC": {
      "codelist": "LOC",
      "code": "C74456",
      "label": "Location of Procedure",
      "igs": [
        "SDTMIG 3.3",
        "SDTMIG 3.4"
      ],
      "core": {
        "SDTMIG 3.3 Procedures": "Perm",
        "SDTMIG 3.4 Procedures": "Perm"
      }
    },
    "PRLAT": {
      "codelist": "LAT",
      "code": "C99073",
      "label": "Laterality",
      "igs": [
        "SDTMIG 3.3",
        "SDTMIG 3.4"
      ],
      "core": {
        "SDTMIG 3.3 Procedures": "Perm",
        "SDTMIG 3.4 Procedures": "Perm"
      }
    },
    "PRDIR": {
      "codelist": "DIR",
      "code": "C99074",
      "label": "Directionality",
      "igs": [
        "SDTMIG 3.3",
        "SDTMIG 3.4"
      ],
      "core": {
        "SDTMIG 3.3 Procedures": "Perm",
        "SDTMIG 3.4 Procedures": "Perm"
      }
    },
    "PRPORTOT": {
      "codelist": "PORTOT",
      "code": "C99075",
      "label": "Portion or Totality",
      "igs": [
        "SDTMIG 3.3",
        "SDTMIG 3.4"
      ],
      "core": {
        "SDTMIG 3.3 Procedures": "Perm",
        "SDTMIG 3.4 Procedures": "Perm"
      }
    },
    "PRSTDTC": {
      "codelist": null,
      "code": null,
      "label": "Start Date/Time of Procedure",
      "igs": [
        "SDTMIG 3.3",
        "SDTMIG 3.4"
      ],
      "core": {
        "SDTMIG 3.3 Procedures": "Exp",
        "SDTMIG 3.4 Procedures": "Exp"
      }
    },
    "PRENDTC": {
      "codelist": null,
      "code": null,
      "label": "End Date/Time of Procedure",
      "igs": [
        "SDTMIG 3.3",
        "SDTMIG 3.4"
      ],
      "core": {
        "SDTMIG 3.3 Procedures": "Perm",
        "SDTMIG 3.4 Procedures": "Perm"
      }
    },
    "PRSTDY": {
      "codelist": null,
      "code": null,
      "label": "Study Day of Start of Procedure",
      "igs": [
        "SDTMIG 3.3",
        "SDTMIG 3.4"
      ],
      "core": {
        "SDTMIG 3.3 Procedures": "Perm",
        "SDTMIG 3.4 Procedures": "Perm"
      }
    },
    "PRENDY": {
      "codelist": null,
      "code": null,
      "label": "Study Day of End of Procedure",
      "igs": [
        "SDTMIG 3.3",
        "SDTMIG 3.4"
      ],
      "core": {
        "SDTMIG 3.3 Procedures": "Perm",
        "SDTMIG 3.4 Procedures": "Perm"
      }
    },
    "PRDUR": {
      "codelist": null,
      "code": null,
      "label": "Duration of Procedure",
      "igs": [
        "SDTMIG 3.3",
        "SDTMIG 3.4"
      ],
      "core": {
        "SDTMIG 3.3 Procedures": "Perm",
        "SDTMIG 3.4 Procedures": "Perm"
      }
    },
    "PRTPT": {
      "codelist": null,
      "code": null,
      "label": "Planned Time Point Name",
      "igs": [
        "SDTMIG 3.3",
        "SDTMIG 3.4"
      ],
      "core": {
        "SDTMIG 3.3 Procedures": "Perm",
        "SDTMIG 3.4 Procedures": "Perm"
      }
    },
    "PRTPTNUM": {
      "codelist": null,
      "code": null,
      "label": "Planned Time Point Number",
      "igs": [
        "SDTMIG 3.3",
        "SDTMIG 3.4"
      ],
      "core": {
        "SDTMIG 3.3 Procedures": "Perm",
        "SDTMIG 3.4 Procedures": "Perm"
      }
    },
    "PRELTM": {
      "codelist": null,
      "code": null,
      "label": "Planned Elapsed Time from Time Point Ref",
      "igs": [
        "SDTMIG 3.3",
        "SDTMIG 3.4"
      ],
      "core": {
        "SDTMIG 3.3 Procedures": "Perm",
        "SDTMIG 3.4 Procedures": "Perm"
      }
    },
    "PRTPTREF": {
      "codelist": null,
      "code": null,
      "label": "Time Point Reference",
      "igs": [
        "SDTMIG 3.3",
        "SDTMIG 3.4"
      ],
      "core": {
        "SDTMIG 3.3 Procedures": "Perm",
        "SDTMIG 3.4 Procedures": "Perm"
      }
    },
    "PRRFTDTC": {
      "codelist": null,
      "code": null,
      "label": "Date/Time of Reference Time Point",
      "igs": [
        "SDTMIG 3.3",
        "SDTMIG 3.4"
      ],
      "core": {
        "SDTMIG 3.3 Procedures": "Perm",
        "SDTMIG 3.4 Procedures": "Perm"
      }
    },
    "PRSTRTPT": {
      "codelist": "STENRF",
      "code": "C66728",
      "label": "Start Relative to Reference Time Point",
      "igs": [
        "SDTMIG 3.3",
        "SDTMIG 3.4"
      ],
      "core": {
        "SDTMIG 3.3 Procedures": "Perm",
        "SDTMIG 3.4 Procedures": "Perm"
      }
    },
    "PRSTTPT": {
      "codelist": null,
      "code": null,
      "label": "Start Reference Time Point",
      "igs": [
        "SDTMIG 3.3",
        "SDTMIG 3.4"
      ],
      "core": {
        "SDTMIG 3.3 Procedures": "Perm",
        "SDTMIG 3.4 Procedures": "Perm"
      }
    },
    "PRENRTPT": {
      "codelist": "STENRF",
      "code": "C66728",
      "label": "End Relative to Reference Time Point",
      "igs": [
        "SDTMIG 3.3",
        "SDTMIG 3.4"
      ],
      "core": {
        "SDTMIG 3.3 Procedures": "Perm",
        "SDTMIG 3.4 Procedures": "Perm"
      }
    },
    "PRENTPT": {
      "codelist": null,
      "code": null,
      "label": "End Reference Time Point",
      "igs": [
        "SDTMIG 3.3",
        "SDTMIG 3.4"
      ],
      "core": {
        "SDTMIG 3.3 Procedures": "Perm",
        "SDTMIG 3.4 Procedures": "Perm"
      }
    },
    "SUSEQ": {
      "codelist": null,
      "code": null,
      "label": "Sequence Number",
      "igs": [
        "SDTMIG 3.3",
        "SDTMIG 3.4"
      ],
      "core": {
        "SDTMIG 3.3 Substance Use": "Req",
        "SDTMIG 3.4 Substance Use": "Req"
      }
    },
    "SUGRPID": {
      "codelist": null,
      "code": null,
      "label": "Group ID",
      "igs": [
        "SDTMIG 3.3",
        "SDTMIG 3.4"
      ],
      "core": {
        "SDTMIG 3.3 Substance Use": "Perm",
        "SDTMIG 3.4 Substance Use": "Perm"
      }
    },
    "SUSPID": {
      "codelist": null,
      "code": null,
      "label": "Sponsor-Defined Identifier",
      "igs": [
        "SDTMIG 3.3",
        "SDTMIG 3.4"
      ],
      "core": {
        "SDTMIG 3.3 Substance Use": "Perm",
        "SDTMIG 3.4 Substance Use": "Perm"
      }
    },
    "SUTRT": {
      "codelist": null,
      "code": null,
      "label": "Reported Name of Substance",
      "igs": [
        "SDTMIG 3.3",
        "SDTMIG 3.4"
      ],
      "core": {
        "SDTMIG 3.3 Substance Use": "Req",
        "SDTMIG 3.4 Substance Use": "Req"
      }
    },
    "SUMODIFY": {
      "codelist": null,
      "code": null,
      "label": "Modified Substance Name",
      "igs": [
        "SDTMIG 3.3",
        "SDTMIG 3.4"
      ],
      "core": {
        "SDTMIG 3.3 Substance Use": "Perm",
        "SDTMIG 3.4 Substance Use": "Perm"
      }
    },
    "SUDECOD": {
      "codelist": null,
      "code": null,
      "label": "Standardized Substance Name",
      "igs": [
        "SDTMIG 3.3",
        "SDTMIG 3.4"
      ],
      "core": {
        "SDTMIG 3.3 Substance Use": "Perm",
        "SDTMIG 3.4 Substance Use": "Perm"
      }
    },
    "SUCAT": {
      "codelist": null,
      "code": null,
      "label": "Category for Substance Use",
      "igs": [
        "SDTMIG 3.3",
        "SDTMIG 3.4"
      ],
      "core": {
        "SDTMIG 3.3 Substance Use": "Perm",
        "SDTMIG 3.4 Substance Use": "Perm"
      }
    },
    "SUSCAT": {
      "codelist": null,
      "code": null,
      "label": "Subcategory for Substance Use",
      "igs": [
        "SDTMIG 3.3",
        "SDTMIG 3.4"
      ],
      "core": {
        "SDTMIG 3.3 Substance Use": "Perm",
        "SDTMIG 3.4 Substance Use": "Perm"
      }
    },
    "SUPRESP": {
      "codelist": "NY",
      "code": "C66742",
      "label": "SU Pre-Specified",
      "igs": [
        "SDTMIG 3.3",
        "SDTMIG 3.4"
      ],
      "core": {
        "SDTMIG 3.3 Substance Use": "Perm",
        "SDTMIG 3.4 Substance Use": "Perm"
      }
    },
    "SUOCCUR": {
      "codelist": "NY",
      "code": "C66742",
      "label": "SU Occurrence",
      "igs": [
        "SDTMIG 3.3",
        "SDTMIG 3.4"
      ],
      "core": {
        "SDTMIG 3.3 Substance Use": "Perm",
        "SDTMIG 3.4 Substance Use": "Perm"
      }
    },
    "SUSTAT": {
      "codelist": "ND",
      "code": "C66789",
      "label": "Completion Status",
      "igs": [
        "SDTMIG 3.3",
        "SDTMIG 3.4"
      ],
      "core": {
        "SDTMIG 3.3 Substance Use": "Perm",
        "SDTMIG 3.4 Substance Use": "Perm"
      }
    },
    "SUREASND": {
      "codelist": null,
      "code": null,
      "label": "Reason Substance Use Not Collected",
      "igs": [
        "SDTMIG 3.3",
        "SDTMIG 3.4"
      ],
      "core": {
        "SDTMIG 3.3 Substance Use": "Perm",
        "SDTMIG 3.4 Substance Use": "Perm"
      }
    },
    "SUCLAS": {
      "codelist": null,
      "code": null,
      "label": "Substance Use Class",
      "igs": [
        "SDTMIG 3.3",
        "SDTMIG 3.4"
      ],
      "core": {
        "SDTMIG 3.3 Substance Use": "Perm",
        "SDTMIG 3.4 Substance Use": "Perm"
      }
    },
    "SUCLASCD": {
      "codelist": null,
      "code": null,
      "label": "Substance Use Class Code",
      "igs": [
        "SDTMIG 3.3",
        "SDTMIG 3.4"
      ],
      "core": {
        "SDTMIG 3.3 Substance Use": "Perm",
        "SDTMIG 3.4 Substance Use": "Perm"
      }
    },
    "SUDOSE": {
      "codelist": null,
      "code": null,
      "label": "Substance Use Consumption",
      "igs": [
        "SDTMIG 3.3",
        "SDTMIG 3.4"
      ],
      "core": {
        "SDTMIG 3.3 Substance Use": "Perm",
        "SDTMIG 3.4 Substance Use": "Perm"
      }
    },
    "SUDOSTXT": {
      "codelist": null,
      "code": null,
      "label": "Substance Use Consumption Text",
      "igs": [
        "SDTMIG 3.3",
        "SDTMIG 3.4"
      ],
      "core": {
        "SDTMIG 3.3 Substance Use": "Perm",
        "SDTMIG 3.4 Substance Use": "Perm"
      }
    },
    "SUDOSU": {
      "codelist": "UNIT",
      "code": "C71620",
      "label": "Consumption Units",
      "igs": [
        "SDTMIG 3.3",
        "SDTMIG 3.4"
      ],
      "core": {
        "SDTMIG 3.3 Substance Use": "Perm",
        "SDTMIG 3.4 Substance Use": "Perm"
      }
    },
    "SUDOSFRM": {
      "codelist": "FRM",
      "code": "C66726",
      "label": "Dose Form",
      "igs": [
        "SDTMIG 3.3",
        "SDTMIG 3.4"
      ],
      "core": {
        "SDTMIG 3.3 Substance Use": "Perm",
        "SDTMIG 3.4 Substance Use": "Perm"
      }
    },
    "SUDOSFRQ": {
      "codelist": "FREQ",
      "code": "C71113",
      "label": "Use Frequency Per Interval",
      "igs": [
        "SDTMIG 3.3",
        "SDTMIG 3.4"
      ],
      "core": {
        "SDTMIG 3.3 Substance Use": "Perm",
        "SDTMIG 3.4 Substance Use": "Perm"
      }
    },
    "SUDOSTOT": {
      "codelist": null,
      "code": null,
      "label": "Total Daily Consumption",
      "igs": [
        "SDTMIG 3.3",
        "SDTMIG 3.4"
      ],
      "core": {
        "SDTMIG 3.3 Substance Use": "Perm",
        "SDTMIG 3.4 Substance Use": "Perm"
      }
    },
    "SUROUTE": {
      "codelist": "ROUTE",
      "code": "C66729",
      "label": "Route of Administration",
      "igs": [
        "SDTMIG 3.3",
        "SDTMIG 3.4"
      ],
      "core": {
        "SDTMIG 3.3 Substance Use": "Perm",
        "SDTMIG 3.4 Substance Use": "Perm"
      }
    },
    "SUSTDTC": {
      "codelist": null,
      "code": null,
      "label": "Start Date/Time of Substance Use",
      "igs": [
        "SDTMIG 3.3",
        "SDTMIG 3.4"
      ],
      "core": {
        "SDTMIG 3.3 Substance Use": "Perm",
        "SDTMIG 3.4 Substance Use": "Perm"
      }
    },
    "SUENDTC": {
      "codelist": null,
      "code": null,
      "label": "End Date/Time of Substance Use",
      "igs": [
        "SDTMIG 3.3",
        "SDTMIG 3.4"
      ],
      "core": {
        "SDTMIG 3.3 Substance Use": "Perm",
        "SDTMIG 3.4 Substance Use": "Perm"
      }
    },
    "SUSTDY": {
      "codelist": null,
      "code": null,
      "label": "Study Day of Start of Substance Use",
      "igs": [
        "SDTMIG 3.3",
        "SDTMIG 3.4"
      ],
      "core": {
        "SDTMIG 3.3 Substance Use": "Perm",
        "SDTMIG 3.4 Substance Use": "Perm"
      }
    },
    "SUENDY": {
      "codelist": null,
      "code": null,
      "label": "Study Day of End of Substance Use",
      "igs": [
        "SDTMIG 3.3",
        "SDTMIG 3.4"
      ],
      "core": {
        "SDTMIG 3.3 Substance Use": "Perm",
        "SDTMIG 3.4 Substance Use": "Perm"
      }
    },
    "SUDUR": {
      "codelist": null,
      "code": null,
      "label": "Duration of Substance Use",
      "igs": [
        "SDTMIG 3.3",
        "SDTMIG 3.4"
      ],
      "core": {
        "SDTMIG 3.3 Substance Use": "Perm",
        "SDTMIG 3.4 Substance Use": "Perm"
      }
    },
    "SUSTRF": {
      "codelist": "STENRF",
      "code": "C66728",
      "label": "Start Relative to Reference Period",
      "igs": [
        "SDTMIG 3.3",
        "SDTMIG 3.4"
      ],
      "core": {
        "SDTMIG 3.3 Substance Use": "Perm",
        "SDTMIG 3.4 Substance Use": "Perm"
      }
    },
    "SUENRF": {
      "codelist": "STENRF",
      "code": "C66728",
      "label": "End Relative to Reference Period",
      "igs": [
        "SDTMIG 3.3",
        "SDTMIG 3.4"
      ],
      "core": {
        "SDTMIG 3.3 Substance Use": "Perm",
        "SDTMIG 3.4 Substance Use": "Perm"
      }
    },
    "SUSTRTPT": {
      "codelist": "STENRF",
      "code": "C66728",
      "label": "Start Relative to Reference Time Point",
      "igs": [
        "SDTMIG 3.3",
        "SDTMIG 3.4"
      ],
      "core": {
        "SDTMIG 3.3 Substance Use": "Perm",
        "SDTMIG 3.4 Substance Use": "Perm"
      }
    },
    "SUSTTPT": {
      "codelist": null,
      "code": null,
      "label": "Start Reference Time Point",
      "igs": [
        "SDTMIG 3.3",
        "SDTMIG 3.4"
      ],
      "core": {
        "SDTMIG 3.3 Substance Use": "Perm",
        "SDTMIG 3.4 Substance Use": "Perm"
      }
    },
    "SUENRTPT": {
      "codelist": "STENRF",
      "code": "C66728",
      "label": "End Relative to Reference Time Point",
      "igs": [
        "SDTMIG 3.3",
        "SDTMIG 3.4"
      ],
      "core": {
        "SDTMIG 3.3 Substance Use": "Perm",
        "SDTMIG 3.4 Substance Use": "Perm"
      }
    },
    "SUENTPT": {
      "codelist": null,
      "code": null,
      "label": "End Reference Time Point",
      "igs": [
        "SDTMIG 3.3",
        "SDTMIG 3.4"
      ],
      "core": {
        "SDTMIG 3.3 Substance Use": "Perm",
        "SDTMIG 3.4 Substance Use": "Perm"
      }
    },
    "AESEQ": {
      "codelist": null,
      "code": null,
      "label": "Sequence Number",
      "igs": [
        "SDTMIG 3.3",
        "SDTMIG 3.4"
      ],
      "core": {
        "SDTMIG 3.3 Adverse Events": "Req",
        "SDTMIG 3.4 Adverse Events": "Req"
      }
    },
    "AEGRPID": {
      "codelist": null,
      "code": null,
      "label": "Group ID",
      "igs": [
        "SDTMIG 3.3",
        "SDTMIG 3.4"
      ],
      "core": {
        "SDTMIG 3.3 Adverse Events": "Perm",
        "SDTMIG 3.4 Adverse Events": "Perm"
      }
    },
    "AEREFID": {
      "codelist": null,
      "code": null,
      "label": "Reference ID",
      "igs": [
        "SDTMIG 3.3",
        "SDTMIG 3.4"
      ],
      "core": {
        "SDTMIG 3.3 Adverse Events": "Perm",
        "SDTMIG 3.4 Adverse Events": "Perm"
      }
    },
    "AESPID": {
      "codelist": null,
      "code": null,
      "label": "Sponsor-Defined Identifier",
      "igs": [
        "SDTMIG 3.3",
        "SDTMIG 3.4"
      ],
      "core": {
        "SDTMIG 3.3 Adverse Events": "Perm",
        "SDTMIG 3.4 Adverse Events": "Perm"
      }
    },
    "AETERM": {
      "codelist": null,
      "code": null,
      "label": "Reported Term for the Adverse Event",
      "igs": [
        "SDTMIG 3.3",
        "SDTMIG 3.4"
      ],
      "core": {
        "SDTMIG 3.3 Adverse Events": "Req",
        "SDTMIG 3.4 Adverse Events": "Req"
      }
    },
    "AEMODIFY": {
      "codelist": null,
      "code": null,
      "label": "Modified Reported Term",
      "igs": [
        "SDTMIG 3.3",
        "SDTMIG 3.4"
      ],
      "core": {
        "SDTMIG 3.3 Adverse Events": "Perm",
        "SDTMIG 3.4 Adverse Events": "Perm"
      }
    },
    "AELLT": {
      "codelist": null,
      "code": null,
      "label": "Lowest Level Term",
      "igs": [
        "SDTMIG 3.3",
        "SDTMIG 3.4"
      ],
      "core": {
        "SDTMIG 3.3 Adverse Events": "Exp",
        "SDTMIG 3.4 Adverse Events": "Exp"
      }
    },
    "AELLTCD": {
      "codelist": null,
      "code": null,
      "label": "Lowest Level Term Code",
      "igs": [
        "SDTMIG 3.3",
        "SDTMIG 3.4"
      ],
      "core": {
        "SDTMIG 3.3 Adverse Events": "Exp",
        "SDTMIG 3.4 Adverse Events": "Exp"
      }
    },
    "AEDECOD": {
      "codelist": null,
      "code": null,
      "label": "Dictionary-Derived Term",
      "igs": [
        "SDTMIG 3.3",
        "SDTMIG 3.4"
      ],
      "core": {
        "SDTMIG 3.3 Adverse Events": "Req",
        "SDTMIG 3.4 Adverse Events": "Req"
      }
    },
    "AEPTCD": {
      "codelist": null,
      "code": null,
      "label": "Preferred Term Code",
      "igs": [
        "SDTMIG 3.3",
        "SDTMIG 3.4"
      ],
      "core": {
        "SDTMIG 3.3 Adverse Events": "Exp",
        "SDTMIG 3.4 Adverse Events": "Exp"
      }
    },
    "AEHLT": {
      "codelist": null,
      "code": null,
      "label": "High Level Term",
      "igs": [
        "SDTMIG 3.3",
        "SDTMIG 3.4"
      ],
      "core": {
        "SDTMIG 3.3 Adverse Events": "Exp",
        "SDTMIG 3.4 Adverse Events": "Exp"
      }
    },
    "AEHLTCD": {
      "codelist": null,
      "code": null,
      "label": "High Level Term Code",
      "igs": [
        "SDTMIG 3.3",
        "SDTMIG 3.4"
      ],
      "core": {
        "SDTMIG 3.3 Adverse Events": "Exp",
        "SDTMIG 3.4 Adverse Events": "Exp"
      }
    },
    "AEHLGT": {
      "codelist": null,
      "code": null,
      "label": "High Level Group Term",
      "igs": [
        "SDTMIG 3.3",
        "SDTMIG 3.4"
      ],
      "core": {
        "SDTMIG 3.3 Adverse Events": "Exp",
        "SDTMIG 3.4 Adverse Events": "Exp"
      }
    },
    "AEHLGTCD": {
      "codelist": null,
      "code": null,
      "label": "High Level Group Term Code",
      "igs": [
        "SDTMIG 3.3",
        "SDTMIG 3.4"
      ],
      "core": {
        "SDTMIG 3.3 Adverse Events": "Exp",
        "SDTMIG 3.4 Adverse Events": "Exp"
      }
    },
    "AECAT": {
      "codelist": null,
      "code": null,
      "label": "Category for Adverse Event",
      "igs": [
        "SDTMIG 3.3",
        "SDTMIG 3.4"
      ],
      "core": {
        "SDTMIG 3.3 Adverse Events": "Perm",
        "SDTMIG 3.4 Adverse Events": "Perm"
      }
    },
    "AESCAT": {
      "codelist": null,
      "code": null,
      "label": "Subcategory for Adverse Event",
      "igs": [
        "SDTMIG 3.3",
        "SDTMIG 3.4"
      ],
      "core": {
        "SDTMIG 3.3 Adverse Events": "Perm",
        "SDTMIG 3.4 Adverse Events": "Perm"
      }
    },
    "AEPRESP": {
      "codelist": "NY",
      "code": "C66742",
      "label": "Pre-Specified Adverse Event",
      "igs": [
        "SDTMIG 3.3",
        "SDTMIG 3.4"
      ],
      "core": {
        "SDTMIG 3.3 Adverse Events": "Perm",
        "SDTMIG 3.4 Adverse Events": "Perm"
      }
    },
    "AEBODSYS": {
      "codelist": null,
      "code": null,
      "label": "Body System or Organ Class",
      "igs": [
        "SDTMIG 3.3",
        "SDTMIG 3.4"
      ],
      "core": {
        "SDTMIG 3.3 Adverse Events": "Exp",
        "SDTMIG 3.4 Adverse Events": "Exp"
      }
    },
    "AEBDSYCD": {
      "codelist": null,
      "code": null,
      "label": "Body System or Organ Class Code",
      "igs": [
        "SDTMIG 3.3",
        "SDTMIG 3.4"
      ],
      "core": {
        "SDTMIG 3.3 Adverse Events": "Exp",
        "SDTMIG 3.4 Adverse Events": "Exp"
      }
    },
    "AESOC": {
      "codelist": null,
      "code": null,
      "label": "Primary System Organ Class",
      "igs": [
        "SDTMIG 3.3",
        "SDTMIG 3.4"
      ],
      "core": {
        "SDTMIG 3.3 Adverse Events": "Exp",
        "SDTMIG 3.4 Adverse Events": "Exp"
      }
    },
    "AESOCCD": {
      "codelist": null,
      "code": null,
      "label": "Primary System Organ Class Code",
      "igs": [
        "SDTMIG 3.3",
        "SDTMIG 3.4"
      ],
      "core": {
        "SDTMIG 3.3 Adverse Events": "Exp",
        "SDTMIG 3.4 Adverse Events": "Exp"
      }
    },
    "AELOC": {
      "codelist": "LOC",
      "code": "C74456",
      "label": "Location of Event",
      "igs": [
        "SDTMIG 3.3",
        "SDTMIG 3.4"
      ],
      "core": {
        "SDTMIG 3.3 Adverse Events": "Perm",
        "SDTMIG 3.4 Adverse Events": "Perm"
      }
    },
    "AESEV": {
      "codelist": "AESEV",
      "code": "C66769",
      "label": "Severity/Intensity",
      "igs": [
        "SDTMIG 3.3",
        "SDTMIG 3.4"
      ],
      "core": {
        "SDTMIG 3.3 Adverse Events": "Perm",
        "SDTMIG 3.4 Adverse Events": "Perm"
      }
    },
    "AESER": {
      "codelist": "NY",
      "code": "C66742",
      "label": "Serious Event",
      "igs": [
        "SDTMIG 3.3",
        "SDTMIG 3.4"
      ],
      "core": {
        "SDTMIG 3.3 Adverse Events": "Exp",
        "SDTMIG 3.4 Adverse Events": "Exp"
      }
    },
    "AEACN": {
      "codelist": "ACN",
      "code": "C66767",
      "label": "Action Taken with Study Treatment",
      "igs": [
        "SDTMIG 3.3",
        "SDTMIG 3.4"
      ],
      "core": {
        "SDTMIG 3.3 Adverse Events": "Exp",
        "SDTMIG 3.4 Adverse Events": "Exp"
      }
    },
    "AEACNOTH": {
      "codelist": null,
      "code": null,
      "label": "Other Action Taken",
      "igs": [
        "SDTMIG 3.3",
        "SDTMIG 3.4"
      ],
      "core": {
        "SDTMIG 3.3 Adverse Events": "Perm",
        "SDTMIG 3.4 Adverse Events": "Perm"
      }
    },
    "AEREL": {
      "codelist": null,
      "code": null,
      "label": "Causality",
      "igs": [
        "SDTMIG 3.3",
        "SDTMIG 3.4"
      ],
      "core": {
        "SDTMIG 3.3 Adverse Events": "Exp",
        "SDTMIG 3.4 Adverse Events": "Exp"
      }
    },
    "AERELNST": {
      "codelist": null,
      "code": null,
      "label": "Relationship to Non-Study Treatment",
      "igs": [
        "SDTMIG 3.3",
        "SDTMIG 3.4"
      ],
      "core": {
        "SDTMIG 3.3 Adverse Events": "Perm",
        "SDTMIG 3.4 Adverse Events": "Perm"
      }
    },
    "AEPATT": {
      "codelist": null,
      "code": null,
      "label": "Pattern of Adverse Event",
      "igs": [
        "SDTMIG 3.3",
        "SDTMIG 3.4"
      ],
      "core": {
        "SDTMIG 3.3 Adverse Events": "Perm",
        "SDTMIG 3.4 Adverse Events": "Perm"
      }
    },
    "AEOUT": {
      "codelist": "OUT",
      "code": "C66768",
      "label": "Outcome of Adverse Event",
      "igs": [
        "SDTMIG 3.3",
        "SDTMIG 3.4"
      ],
      "core": {
        "SDTMIG 3.3 Adverse Events": "Perm",
        "SDTMIG 3.4 Adverse Events": "Perm"
      }
    },
    "AESCAN": {
      "codelist": "NY",
      "code": "C66742",
      "label": "Involves Cancer",
      "igs": [
        "SDTMIG 3.3",
        "SDTMIG 3.4"
      ],
      "core": {
        "SDTMIG 3.3 Adverse Events": "Perm",
        "SDTMIG 3.4 Adverse Events": "Perm"
      }
    },
    "AESCONG": {
      "codelist": "NY",
      "code": "C66742",
      "label": "Congenital Anomaly or Birth Defect",
      "igs": [
        "SDTMIG 3.3",
        "SDTMIG 3.4"
      ],
      "core": {
        "SDTMIG 3.3 Adverse Events": "Perm",
        "SDTMIG 3.4 Adverse Events": "Perm"
      }
    },
    "AESDISAB": {
      "codelist": "NY",
      "code": "C66742",
      "label": "Persist or Signif Disability/Incapacity",
      "igs": [
        "SDTMIG 3.3",
        "SDTMIG 3.4"
      ],
      "core": {
        "SDTMIG 3.3 Adverse Events": "Perm",
        "SDTMIG 3.4 Adverse Events": "Perm"
      }
    },
    "AESDTH": {
      "codelist": "NY",
      "code": "C66742",
      "label": "Results in Death",
      "igs": [
        "SDTMIG 3.3",
        "SDTMIG 3.4"
      ],
      "core": {
        "SDTMIG 3.3 Adverse Events": "Perm",
        "SDTMIG 3.4 Adverse Events": "Perm"
      }
    },
    "AESHOSP": {
      "codelist": "NY",
      "code": "C66742",
      "label": "Requires or Prolongs Hospitalization",
      "igs": [
        "SDTMIG 3.3",
        "SDTMIG 3.4"
      ],
      "core": {
        "SDTMIG 3.3 Adverse Events": "Perm",
        "SDTMIG 3.4 Adverse Events": "Perm"
      }
    },
    "AESLIFE": {
      "codelist": "NY",
      "code": "C66742",
      "label": "Is Life Threatening",
      "igs": [
        "SDTMIG 3.3",
        "SDTMIG 3.4"
      ],
      "core": {
        "SDTMIG 3.3 Adverse Events": "Perm",
        "SDTMIG 3.4 Adverse Events": "Perm"
      }
    },
    "AESOD": {
      "codelist": "NY",
      "code": "C66742",
      "label": "Occurred with Overdose",
      "igs": [
        "SDTMIG 3.3",
        "SDTMIG 3.4"
      ],
      "core": {
        "SDTMIG 3.3 Adverse Events": "Perm",
        "SDTMIG 3.4 Adverse Events": "Perm"
      }
    },
    "AESMIE": {
      "codelist": "NY",
      "code": "C66742",
      "label": "Other Medically Important Serious Event",
      "igs": [
        "SDTMIG 3.3",
        "SDTMIG 3.4"
      ],
      "core": {
        "SDTMIG 3.3 Adverse Events": "Perm",
        "SDTMIG 3.4 Adverse Events": "Perm"
      }
    },
    "AECONTRT": {
      "codelist": "NY",
      "code": "C66742",
      "label": "Concomitant or Additional Trtmnt Given",
      "igs": [
        "SDTMIG 3.3",
        "SDTMIG 3.4"
      ],
      "core": {
        "SDTMIG 3.3 Adverse Events": "Perm",
        "SDTMIG 3.4 Adverse Events": "Perm"
      }
    },
    "AETOXGR": {
      "codelist": null,
      "code": null,
      "label": "Standard Toxicity Grade",
      "igs": [
        "SDTMIG 3.3",
        "SDTMIG 3.4"
      ],
      "core": {
        "SDTMIG 3.3 Adverse Events": "Perm",
        "SDTMIG 3.4 Adverse Events": "Perm"
      }
    },
    "AESTDTC": {
      "codelist": null,
      "code": null,
      "label": "Start Date/Time of Adverse Event",
      "igs": [
        "SDTMIG 3.3",
        "SDTMIG 3.4"
      ],
      "core": {
        "SDTMIG 3.3 Adverse Events": "Exp",
        "SDTMIG 3.4 Adverse Events": "Exp"
      }
    },
    "AEENDTC": {
      "codelist": null,
      "code": null,
      "label": "End Date/Time of Adverse Event",
      "igs": [
        "SDTMIG 3.3",
        "SDTMIG 3.4"
      ],
      "core": {
        "SDTMIG 3.3 Adverse Events": "Exp",
        "SDTMIG 3.4 Adverse Events": "Exp"
      }
    },
    "AESTDY": {
      "codelist": null,
      "code": null,
      "label": "Study Day of Start of Adverse Event",
      "igs": [
        "SDTMIG 3.3",
        "SDTMIG 3.4"
      ],
      "core": {
        "SDTMIG 3.3 Adverse Events": "Perm",
        "SDTMIG 3.4 Adverse Events": "Perm"
      }
    },
    "AEENDY": {
      "codelist": null,
      "code": null,
      "label": "Study Day of End of Adverse Event",
      "igs": [
        "SDTMIG 3.3",
        "SDTMIG 3.4"
      ],
      "core": {
        "SDTMIG 3.3 Adverse Events": "Perm",
        "SDTMIG 3.4 Adverse Events": "Perm"
      }
    },
    "AEDUR": {
      "codelist": null,
      "code": null,
      "label": "Duration of Adverse Event",
      "igs": [
        "SDTMIG 3.3",
        "SDTMIG 3.4"
      ],
      "core": {
        "SDTMIG 3.3 Adverse Events": "Perm",
        "SDTMIG 3.4 Adverse Events": "Perm"
      }
    },
    "AEENRF": {
      "codelist": "STENRF",
      "code": "C66728",
      "label": "End Relative to Reference Period",
      "igs": [
        "SDTMIG 3.3",
        "SDTMIG 3.4"
      ],
      "core": {
        "SDTMIG 3.3 Adverse Events": "Perm",
        "SDTMIG 3.4 Adverse Events": "Perm"
      }
    },
    "AEENRTPT": {
      "codelist": "STENRF",
      "code": "C66728",
      "label": "End Relative to Reference Time Point",
      "igs": [
        "SDTMIG 3.3",
        "SDTMIG 3.4"
      ],
      "core": {
        "SDTMIG 3.3 Adverse Events": "Perm",
        "SDTMIG 3.4 Adverse Events": "Perm"
      }
    },
    "AEENTPT": {
      "codelist": null,
      "code": null,
      "label": "End Reference Time Point",
      "igs": [
        "SDTMIG 3.3",
        "SDTMIG 3.4"
      ],
      "core": {
        "SDTMIG 3.3 Adverse Events": "Perm",
        "SDTMIG 3.4 Adverse Events": "Perm"
      }
    },
    "CESEQ": {
      "codelist": null,
      "code": null,
      "label": "Sequence Number",
      "igs": [
        "SDTMIG 3.3",
        "SDTMIG 3.4"
      ],
      "core": {
        "SDTMIG 3.3 Clinical Events": "Req",
        "SDTMIG 3.4 Clinical Events": "Req"
      }
    },
    "CEGRPID": {
      "codelist": null,
      "code": null,
      "label": "Group ID",
      "igs": [
        "SDTMIG 3.3",
        "SDTMIG 3.4"
      ],
      "core": {
        "SDTMIG 3.3 Clinical Events": "Perm",
        "SDTMIG 3.4 Clinical Events": "Perm"
      }
    },
    "CEREFID": {
      "codelist": null,
      "code": null,
      "label": "Reference ID",
      "igs": [
        "SDTMIG 3.3",
        "SDTMIG 3.4"
      ],
      "core": {
        "SDTMIG 3.3 Clinical Events": "Perm",
        "SDTMIG 3.4 Clinical Events": "Perm"
      }
    },
    "CESPID": {
      "codelist": null,
      "code": null,
      "label": "Sponsor-Defined Identifier",
      "igs": [
        "SDTMIG 3.3",
        "SDTMIG 3.4"
      ],
      "core": {
        "SDTMIG 3.3 Clinical Events": "Perm",
        "SDTMIG 3.4 Clinical Events": "Perm"
      }
    },
    "CETERM": {
      "codelist": null,
      "code": null,
      "label": "Reported Term for the Clinical Event",
      "igs": [
        "SDTMIG 3.3",
        "SDTMIG 3.4"
      ],
      "core": {
        "SDTMIG 3.3 Clinical Events": "Req",
        "SDTMIG 3.4 Clinical Events": "Req"
      }
    },
    "CEDECOD": {
      "codelist": null,
      "code": null,
      "label": "Dictionary-Derived Term",
      "igs": [
        "SDTMIG 3.3",
        "SDTMIG 3.4"
      ],
      "core": {
        "SDTMIG 3.3 Clinical Events": "Perm",
        "SDTMIG 3.4 Clinical Events": "Perm"
      }
    },
    "CECAT": {
      "codelist": null,
      "code": null,
      "label": "Category for the Clinical Event",
      "igs": [
        "SDTMIG 3.3",
        "SDTMIG 3.4"
      ],
      "core": {
        "SDTMIG 3.3 Clinical Events": "Perm",
        "SDTMIG 3.4 Clinical Events": "Perm"
      }
    },
    "CESCAT": {
      "codelist": null,
      "code": null,
      "label": "Subcategory for the Clinical Event",
      "igs": [
        "SDTMIG 3.3",
        "SDTMIG 3.4"
      ],
      "core": {
        "SDTMIG 3.3 Clinical Events": "Perm",
        "SDTMIG 3.4 Clinical Events": "Perm"
      }
    },
    "CEPRESP": {
      "codelist": "NY",
      "code": "C66742",
      "label": "Clinical Event Pre-specified",
      "igs": [
        "SDTMIG 3.3",
        "SDTMIG 3.4"
      ],
      "core": {
        "SDTMIG 3.3 Clinical Events": "Perm",
        "SDTMIG 3.4 Clinical Events": "Perm"
      }
    },
    "CEOCCUR": {
      "codelist": "NY",
      "code": "C66742",
      "label": "Clinical Event Occurrence",
      "igs": [
        "SDTMIG 3.3",
        "SDTMIG 3.4"
      ],
      "core": {
        "SDTMIG 3.3 Clinical Events": "Perm",
        "SDTMIG 3.4 Clinical Events": "Perm"
      }
    },
    "CESTAT": {
      "codelist": "ND",
      "code": "C66789",
      "label": "Completion Status",
      "igs": [
        "SDTMIG 3.3",
        "SDTMIG 3.4"
      ],
      "core": {
        "SDTMIG 3.3 Clinical Events": "Perm",
        "SDTMIG 3.4 Clinical Events": "Perm"
      }
    },
    "CEREASND": {
      "codelist": null,
      "code": null,
      "label": "Reason Clinical Event Not Collected",
      "igs": [
        "SDTMIG 3.3",
        "SDTMIG 3.4"
      ],
      "core": {
        "SDTMIG 3.3 Clinical Events": "Perm",
        "SDTMIG 3.4 Clinical Events": "Perm"
      }
    },
    "CEBODSYS": {
      "codelist": null,
      "code": null,
      "label": "Body System or Organ Class",
      "igs": [
        "SDTMIG 3.3",
        "SDTMIG 3.4"
      ],
      "core": {
        "SDTMIG 3.3 Clinical Events": "Perm",
        "SDTMIG 3.4 Clinical Events": "Perm"
      }
    },
    "CESEV": {
      "codelist": "SEVRS",
      "code": "C165643",
      "label": "Severity/Intensity",
      "igs": [
        "SDTMIG 3.3",
        "SDTMIG 3.4"
      ],
      "core": {
        "SDTMIG 3.3 Clinical Events": "Perm",
        "SDTMIG 3.4 Clinical Events": "Perm"
      }
    },
    "CEDTC": {
      "codelist": null,
      "code": null,
      "label": "Date/Time of Event Collection",
      "igs": [
        "SDTMIG 3.3",
        "SDTMIG 3.4"
      ],
      "core": {
        "SDTMIG 3.3 Clinical Events": "Perm",
        "SDTMIG 3.4 Clinical Events": "Perm"
      }
    },
    "CESTDTC": {
      "codelist": null,
      "code": null,
      "label": "Start Date/Time of Clinical Event",
      "igs": [
        "SDTMIG 3.3",
        "SDTMIG 3.4"
      ],
      "core": {
        "SDTMIG 3.3 Clinical Events": "Perm",
        "SDTMIG 3.4 Clinical Events": "Perm"
      }
    },
    "CEENDTC": {
      "codelist": null,
      "code": null,
      "label": "End Date/Time of Clinical Event",
      "igs": [
        "SDTMIG 3.3",
        "SDTMIG 3.4"
      ],
      "core": {
        "SDTMIG 3.3 Clinical Events": "Perm",
        "SDTMIG 3.4 Clinical Events": "Perm"
      }
    },
    "CEDY": {
      "codelist": null,
      "code": null,
      "label": "Study Day of Event Collection",
      "igs": [
        "SDTMIG 3.3",
        "SDTMIG 3.4"
      ],
      "core": {
        "SDTMIG 3.3 Clinical Events": "Perm",
        "SDTMIG 3.4 Clinical Events": "Perm"
      }
    },
    "CESTDY": {
      "codelist": null,
      "code": null,
      "label": "Study Day of Start of Event",
      "igs": [
        "SDTMIG 3.3",
        "SDTMIG 3.4"
      ],
      "core": {
        "SDTMIG 3.3 Clinical Events": "Perm",
        "SDTMIG 3.4 Clinical Events": "Perm"
      }
    },
    "CEENDY": {
      "codelist": null,
      "code": null,
      "label": "Study Day of End of Event",
      "igs": [
        "SDTMIG 3.3",
        "SDTMIG 3.4"
      ],
      "core": {
        "SDTMIG 3.3 Clinical Events": "Perm",
        "SDTMIG 3.4 Clinical Events": "Perm"
      }
    },
    "CESTRF": {
      "codelist": "STENRF",
      "code": "C66728",
      "label": "Start Relative to Reference Period",
      "igs": [
        "SDTMIG 3.3",
        "SDTMIG 3.4"
      ],
      "core": {
        "SDTMIG 3.3 Clinical Events": "Perm",
        "SDTMIG 3.4 Clinical Events": "Perm"
      }
    },
    "CEENRF": {
      "codelist": "STENRF",
      "code": "C66728",
      "label": "End Relative to Reference Period",
      "igs": [
        "SDTMIG 3.3",
        "SDTMIG 3.4"
      ],
      "core": {
        "SDTMIG 3.3 Clinical Events": "Perm",
        "SDTMIG 3.4 Clinical Events": "Perm"
      }
    },
    "CESTRTPT": {
      "codelist": "STENRF",
      "code": "C66728",
      "label": "Start Relative to Reference Time Point",
      "igs": [
        "SDTMIG 3.3",
        "SDTMIG 3.4"
      ],
      "core": {
        "SDTMIG 3.3 Clinical Events": "Perm",
        "SDTMIG 3.4 Clinical Events": "Perm"
      }
    },
    "CESTTPT": {
      "codelist": null,
      "code": null,
      "label": "Start Reference Time Point",
      "igs": [
        "SDTMIG 3.3",
        "SDTMIG 3.4"
      ],
      "core": {
        "SDTMIG 3.3 Clinical Events": "Perm",
        "SDTMIG 3.4 Clinical Events": "Perm"
      }
    },
    "CEENRTPT": {
      "codelist": "STENRF",
      "code": "C66728",
      "label": "End Relative to Reference Time Point",
      "igs": [
        "SDTMIG 3.3",
        "SDTMIG 3.4"
      ],
      "core": {
        "SDTMIG 3.3 Clinical Events": "Perm",
        "SDTMIG 3.4 Clinical Events": "Perm"
      }
    },
    "CEENTPT": {
      "codelist": null,
      "code": null,
      "label": "End Reference Time Point",
      "igs": [
        "SDTMIG 3.3",
        "SDTMIG 3.4"
      ],
      "core": {
        "SDTMIG 3.3 Clinical Events": "Perm",
        "SDTMIG 3.4 Clinical Events": "Perm"
      }
    },
    "DSSEQ": {
      "codelist": null,
      "code": null,
      "label": "Sequence Number",
      "igs": [
        "SDTMIG 3.3",
        "SDTMIG 3.4"
      ],
      "core": {
        "SDTMIG 3.3 Disposition": "Req",
        "SDTMIG 3.4 Disposition": "Req"
      }
    },
    "DSGRPID": {
      "codelist": null,
      "code": null,
      "label": "Group ID",
      "igs": [
        "SDTMIG 3.3",
        "SDTMIG 3.4"
      ],
      "core": {
        "SDTMIG 3.3 Disposition": "Perm",
        "SDTMIG 3.4 Disposition": "Perm"
      }
    },
    "DSREFID": {
      "codelist": null,
      "code": null,
      "label": "Reference ID",
      "igs": [
        "SDTMIG 3.3",
        "SDTMIG 3.4"
      ],
      "core": {
        "SDTMIG 3.3 Disposition": "Perm",
        "SDTMIG 3.4 Disposition": "Perm"
      }
    },
    "DSSPID": {
      "codelist": null,
      "code": null,
      "label": "Sponsor-Defined Identifier",
      "igs": [
        "SDTMIG 3.3",
        "SDTMIG 3.4"
      ],
      "core": {
        "SDTMIG 3.3 Disposition": "Perm",
        "SDTMIG 3.4 Disposition": "Perm"
      }
    },
    "DSTERM": {
      "codelist": null,
      "code": null,
      "label": "Reported Term for the Disposition Event",
      "igs": [
        "SDTMIG 3.3",
        "SDTMIG 3.4"
      ],
      "core": {
        "SDTMIG 3.3 Disposition": "Req",
        "SDTMIG 3.4 Disposition": "Req"
      }
    },
    "DSDECOD": {
      "codelist": "PROTMLST",
      "code": "C114118",
      "label": "Standardized Disposition Term",
      "igs": [
        "SDTMIG 3.3",
        "SDTMIG 3.4"
      ],
      "core": {
        "SDTMIG 3.3 Disposition": "Req",
        "SDTMIG 3.4 Disposition": "Req"
      }
    },
    "DSCAT": {
      "codelist": "DSCAT",
      "code": "C74558",
      "label": "Category for Disposition Event",
      "igs": [
        "SDTMIG 3.3",
        "SDTMIG 3.4"
      ],
      "core": {
        "SDTMIG 3.3 Disposition": "Exp",
        "SDTMIG 3.4 Disposition": "Exp"
      }
    },
    "DSSCAT": {
      "codelist": "DSSCAT",
      "code": "C170443",
      "label": "Subcategory for Disposition Event",
      "igs": [
        "SDTMIG 3.3",
        "SDTMIG 3.4"
      ],
      "core": {
        "SDTMIG 3.3 Disposition": "Perm",
        "SDTMIG 3.4 Disposition": "Perm"
      }
    },
    "DSDTC": {
      "codelist": null,
      "code": null,
      "label": "Date/Time of Collection",
      "igs": [
        "SDTMIG 3.3",
        "SDTMIG 3.4"
      ],
      "core": {
        "SDTMIG 3.3 Disposition": "Perm",
        "SDTMIG 3.4 Disposition": "Perm"
      }
    },
    "DSSTDTC": {
      "codelist": null,
      "code": null,
      "label": "Start Date/Time of Disposition Event",
      "igs": [
        "SDTMIG 3.3",
        "SDTMIG 3.4"
      ],
      "core": {
        "SDTMIG 3.3 Disposition": "Exp",
        "SDTMIG 3.4 Disposition": "Exp"
      }
    },
    "DSDY": {
      "codelist": null,
      "code": null,
      "label": "Study Day of Collection",
      "igs": [
        "SDTMIG 3.3",
        "SDTMIG 3.4"
      ],
      "core": {
        "SDTMIG 3.3 Disposition": "Exp",
        "SDTMIG 3.4 Disposition": "Perm"
      }
    },
    "DSSTDY": {
      "codelist": null,
      "code": null,
      "label": "Study Day of Start of Disposition Event",
      "igs": [
        "SDTMIG 3.3",
        "SDTMIG 3.4"
      ],
      "core": {
        "SDTMIG 3.3 Disposition": "Perm",
        "SDTMIG 3.4 Disposition": "Exp"
      }
    },
    "DVSEQ": {
      "codelist": null,
      "code": null,
      "label": "Sequence Number",
      "igs": [
        "SDTMIG 3.3",
        "SDTMIG 3.4"
      ],
      "core": {
        "SDTMIG 3.3 Protocol Deviations": "Req",
        "SDTMIG 3.4 Protocol Deviations": "Req"
      }
    },
    "DVREFID": {
      "codelist": null,
      "code": null,
      "label": "Reference ID",
      "igs": [
        "SDTMIG 3.3",
        "SDTMIG 3.4"
      ],
      "core": {
        "SDTMIG 3.3 Protocol Deviations": "Perm",
        "SDTMIG 3.4 Protocol Deviations": "Perm"
      }
    },
    "DVSPID": {
      "codelist": null,
      "code": null,
      "label": "Sponsor-Defined Identifier",
      "igs": [
        "SDTMIG 3.3",
        "SDTMIG 3.4"
      ],
      "core": {
        "SDTMIG 3.3 Protocol Deviations": "Perm",
        "SDTMIG 3.4 Protocol Deviations": "Perm"
      }
    },
    "DVTERM": {
      "codelist": null,
      "code": null,
      "label": "Protocol Deviation Term",
      "igs": [
        "SDTMIG 3.3",
        "SDTMIG 3.4"
      ],
      "core": {
        "SDTMIG 3.3 Protocol Deviations": "Req",
        "SDTMIG 3.4 Protocol Deviations": "Req"
      }
    },
    "DVDECOD": {
      "codelist": null,
      "code": null,
      "label": "Protocol Deviation Coded Term",
      "igs": [
        "SDTMIG 3.3",
        "SDTMIG 3.4"
      ],
      "core": {
        "SDTMIG 3.3 Protocol Deviations": "Perm",
        "SDTMIG 3.4 Protocol Deviations": "Perm"
      }
    },
    "DVCAT": {
      "codelist": null,
      "code": null,
      "label": "Category for Protocol Deviation",
      "igs": [
        "SDTMIG 3.3",
        "SDTMIG 3.4"
      ],
      "core": {
        "SDTMIG 3.3 Protocol Deviations": "Perm",
        "SDTMIG 3.4 Protocol Deviations": "Perm"
      }
    },
    "DVSCAT": {
      "codelist": null,
      "code": null,
      "label": "Subcategory for Protocol Deviation",
      "igs": [
        "SDTMIG 3.3",
        "SDTMIG 3.4"
      ],
      "core": {
        "SDTMIG 3.3 Protocol Deviations": "Perm",
        "SDTMIG 3.4 Protocol Deviations": "Perm"
      }
    },
    "DVSTDTC": {
      "codelist": null,
      "code": null,
      "label": "Start Date/Time of Deviation",
      "igs": [
        "SDTMIG 3.3",
        "SDTMIG 3.4"
      ],
      "core": {
        "SDTMIG 3.3 Protocol Deviations": "Perm",
        "SDTMIG 3.4 Protocol Deviations": "Perm"
      }
    },
    "DVENDTC": {
      "codelist": null,
      "code": null,
      "label": "End Date/Time of Deviation",
      "igs": [
        "SDTMIG 3.3",
        "SDTMIG 3.4"
      ],
      "core": {
        "SDTMIG 3.3 Protocol Deviations": "Perm",
        "SDTMIG 3.4 Protocol Deviations": "Perm"
      }
    },
    "DVSTDY": {
      "codelist": null,
      "code": null,
      "label": "Study Day of Start of Deviation Event",
      "igs": [
        "SDTMIG 3.3",
        "SDTMIG 3.4"
      ],
      "core": {
        "SDTMIG 3.3 Protocol Deviations": "Perm",
        "SDTMIG 3.4 Protocol Deviations": "Perm"
      }
    },
    "DVENDY": {
      "codelist": null,
      "code": null,
      "label": "Study Day of End of Observation",
      "igs": [
        "SDTMIG 3.3",
        "SDTMIG 3.4"
      ],
      "core": {
        "SDTMIG 3.3 Protocol Deviations": "Perm",
        "SDTMIG 3.4 Protocol Deviations": "Perm"
      }
    },
    "HOSEQ": {
      "codelist": null,
      "code": null,
      "label": "Sequence Number",
      "igs": [
        "SDTMIG 3.3",
        "SDTMIG 3.4"
      ],
      "core": {
        "SDTMIG 3.3 Healthcare Encounters": "Req",
        "SDTMIG 3.4 Healthcare Encounters": "Req"
      }
    },
    "HOGRPID": {
      "codelist": null,
      "code": null,
      "label": "Group ID",
      "igs": [
        "SDTMIG 3.3",
        "SDTMIG 3.4"
      ],
      "core": {
        "SDTMIG 3.3 Healthcare Encounters": "Perm",
        "SDTMIG 3.4 Healthcare Encounters": "Perm"
      }
    },
    "HOREFID": {
      "codelist": null,
      "code": null,
      "label": "Reference ID",
      "igs": [
        "SDTMIG 3.3",
        "SDTMIG 3.4"
      ],
      "core": {
        "SDTMIG 3.3 Healthcare Encounters": "Perm",
        "SDTMIG 3.4 Healthcare Encounters": "Perm"
      }
    },
    "HOSPID": {
      "codelist": null,
      "code": null,
      "label": "Sponsor-Defined Identifier",
      "igs": [
        "SDTMIG 3.3",
        "SDTMIG 3.4"
      ],
      "core": {
        "SDTMIG 3.3 Healthcare Encounters": "Perm",
        "SDTMIG 3.4 Healthcare Encounters": "Perm"
      }
    },
    "HOTERM": {
      "codelist": null,
      "code": null,
      "label": "Healthcare Encounter Term",
      "igs": [
        "SDTMIG 3.3",
        "SDTMIG 3.4"
      ],
      "core": {
        "SDTMIG 3.3 Healthcare Encounters": "Req",
        "SDTMIG 3.4 Healthcare Encounters": "Req"
      }
    },
    "HODECOD": {
      "codelist": "HODECOD",
      "code": "C171444",
      "label": "Dictionary-Derived Term",
      "igs": [
        "SDTMIG 3.3",
        "SDTMIG 3.4"
      ],
      "core": {
        "SDTMIG 3.3 Healthcare Encounters": "Perm",
        "SDTMIG 3.4 Healthcare Encounters": "Perm"
      }
    },
    "HOCAT": {
      "codelist": null,
      "code": null,
      "label": "Category for Healthcare Encounter",
      "igs": [
        "SDTMIG 3.3",
        "SDTMIG 3.4"
      ],
      "core": {
        "SDTMIG 3.3 Healthcare Encounters": "Perm",
        "SDTMIG 3.4 Healthcare Encounters": "Perm"
      }
    },
    "HOSCAT": {
      "codelist": null,
      "code": null,
      "label": "Subcategory for Healthcare Encounter",
      "igs": [
        "SDTMIG 3.3",
        "SDTMIG 3.4"
      ],
      "core": {
        "SDTMIG 3.3 Healthcare Encounters": "Perm",
        "SDTMIG 3.4 Healthcare Encounters": "Perm"
      }
    },
    "HOPRESP": {
      "codelist": "NY",
      "code": "C66742",
      "label": "Pre-Specified Healthcare Encounter",
      "igs": [
        "SDTMIG 3.3",
        "SDTMIG 3.4"
      ],
      "core": {
        "SDTMIG 3.3 Healthcare Encounters": "Perm",
        "SDTMIG 3.4 Healthcare Encounters": "Perm"
      }
    },
    "HOOCCUR": {
      "codelist": "NY",
      "code": "C66742",
      "label": "Healthcare Encounter Occurrence",
      "igs": [
        "SDTMIG 3.3",
        "SDTMIG 3.4"
      ],
      "core": {
        "SDTMIG 3.3 Healthcare Encounters": "Perm",
        "SDTMIG 3.4 Healthcare Encounters": "Perm"
      }
    },
    "HOSTAT": {
      "codelist": "ND",
      "code": "C66789",
      "label": "Completion Status",
      "igs": [
        "SDTMIG 3.3",
        "SDTMIG 3.4"
      ],
      "core": {
        "SDTMIG 3.3 Healthcare Encounters": "Perm",
        "SDTMIG 3.4 Healthcare Encounters": "Perm"
      }
    },
    "HOREASND": {
      "codelist": null,
      "code": null,
      "label": "Reason Healthcare Encounter Not Done",
      "igs": [
        "SDTMIG 3.3",
        "SDTMIG 3.4"
      ],
      "core": {
        "SDTMIG 3.3 Healthcare Encounters": "Perm",
        "SDTMIG 3.4 Healthcare Encounters": "Perm"
      }
    },
    "HODTC": {
      "codelist": null,
      "code": null,
      "label": "Date/Time of Event Collection",
      "igs": [
        "SDTMIG 3.3",
        "SDTMIG 3.4"
      ],
      "core": {
        "SDTMIG 3.3 Healthcare Encounters": "Perm",
        "SDTMIG 3.4 Healthcare Encounters": "Perm"
      }
    },
    "HOSTDTC": {
      "codelist": null,
      "code": null,
      "label": "Start Date/Time of Healthcare Encounter",
      "igs": [
        "SDTMIG 3.3",
        "SDTMIG 3.4"
      ],
      "core": {
        "SDTMIG 3.3 Healthcare Encounters": "Exp",
        "SDTMIG 3.4 Healthcare Encounters": "Exp"
      }
    },
    "HOENDTC": {
      "codelist": null,
      "code": null,
      "label": "End Date/Time of Healthcare Encounter",
      "igs": [
        "SDTMIG 3.3",
        "SDTMIG 3.4"
      ],
      "core": {
        "SDTMIG 3.3 Healthcare Encounters": "Perm",
        "SDTMIG 3.4 Healthcare Encounters": "Perm"
      }
    },
    "HODY": {
      "codelist": null,
      "code": null,
      "label": "Study Day of Event Collection",
      "igs": [
        "SDTMIG 3.3",
        "SDTMIG 3.4"
      ],
      "core": {
        "SDTMIG 3.3 Healthcare Encounters": "Perm",
        "SDTMIG 3.4 Healthcare Encounters": "Perm"
      }
    },
    "HOSTDY": {
      "codelist": null,
      "code": null,
      "label": "Study Day of Start of Encounter",
      "igs": [
        "SDTMIG 3.3",
        "SDTMIG 3.4"
      ],
      "core": {
        "SDTMIG 3.3 Healthcare Encounters": "Perm",
        "SDTMIG 3.4 Healthcare Encounters": "Perm"
      }
    },
    "HOENDY": {
      "codelist": null,
      "code": null,
      "label": "Study Day of End of Healthcare Encounter",
      "igs": [
        "SDTMIG 3.3",
        "SDTMIG 3.4"
      ],
      "core": {
        "SDTMIG 3.3 Healthcare Encounters": "Perm",
        "SDTMIG 3.4 Healthcare Encounters": "Perm"
      }
    },
    "HODUR": {
      "codelist": null,
      "code": null,
      "label": "Duration of Healthcare Encounter",
      "igs": [
        "SDTMIG 3.3",
        "SDTMIG 3.4"
      ],
      "core": {
        "SDTMIG 3.3 Healthcare Encounters": "Perm",
        "SDTMIG 3.4 Healthcare Encounters": "Perm"
      }
    },
    "HOSTRTPT": {
      "codelist": "STENRF",
      "code": "C66728",
      "label": "Start Relative to Reference Time Point",
      "igs": [
        "SDTMIG 3.3",
        "SDTMIG 3.4"
      ],
      "core": {
        "SDTMIG 3.3 Healthcare Encounters": "Perm",
        "SDTMIG 3.4 Healthcare Encounters": "Perm"
      }
    },
    "HOSTTPT": {
      "codelist": null,
      "code": null,
      "label": "Start Reference Time Point",
      "igs": [
        "SDTMIG 3.3",
        "SDTMIG 3.4"
      ],
      "core": {
        "SDTMIG 3.3 Healthcare Encounters": "Perm",
        "SDTMIG 3.4 Healthcare Encounters": "Perm"
      }
    },
    "HOENRTPT": {
      "codelist": "STENRF",
      "code": "C66728",
      "label": "End Relative to Reference Time Point",
      "igs": [
        "SDTMIG 3.3",
        "SDTMIG 3.4"
      ],
      "core": {
        "SDTMIG 3.3 Healthcare Encounters": "Perm",
        "SDTMIG 3.4 Healthcare Encounters": "Perm"
      }
    },
    "HOENTPT": {
      "codelist": null,
      "code": null,
      "label": "End Reference Time Point",
      "igs": [
        "SDTMIG 3.3",
        "SDTMIG 3.4"
      ],
      "core": {
        "SDTMIG 3.3 Healthcare Encounters": "Perm",
        "SDTMIG 3.4 Healthcare Encounters": "Perm"
      }
    },
    "MHSEQ": {
      "codelist": null,
      "code": null,
      "label": "Sequence Number",
      "igs": [
        "SDTMIG 3.3",
        "SDTMIG 3.4"
      ],
      "core": {
        "SDTMIG 3.3 Medical History": "Req",
        "SDTMIG 3.4 Medical History": "Req"
      }
    },
    "MHGRPID": {
      "codelist": null,
      "code": null,
      "label": "Group ID",
      "igs": [
        "SDTMIG 3.3",
        "SDTMIG 3.4"
      ],
      "core": {
        "SDTMIG 3.3 Medical History": "Perm",
        "SDTMIG 3.4 Medical History": "Perm"
      }
    },
    "MHREFID": {
      "codelist": null,
      "code": null,
      "label": "Reference ID",
      "igs": [
        "SDTMIG 3.3",
        "SDTMIG 3.4"
      ],
      "core": {
        "SDTMIG 3.3 Medical History": "Perm",
        "SDTMIG 3.4 Medical History": "Perm"
      }
    },
    "MHSPID": {
      "codelist": null,
      "code": null,
      "label": "Sponsor-Defined Identifier",
      "igs": [
        "SDTMIG 3.3",
        "SDTMIG 3.4"
      ],
      "core": {
        "SDTMIG 3.3 Medical History": "Perm",
        "SDTMIG 3.4 Medical History": "Perm"
      }
    },
    "MHTERM": {
      "codelist": null,
      "code": null,
      "label": "Reported Term for the Medical History",
      "igs": [
        "SDTMIG 3.3",
        "SDTMIG 3.4"
      ],
      "core": {
        "SDTMIG 3.3 Medical History": "Req",
        "SDTMIG 3.4 Medical History": "Req"
      }
    },
    "MHMODIFY": {
      "codelist": null,
      "code": null,
      "label": "Modified Reported Term",
      "igs": [
        "SDTMIG 3.3",
        "SDTMIG 3.4"
      ],
      "core": {
        "SDTMIG 3.3 Medical History": "Perm",
        "SDTMIG 3.4 Medical History": "Perm"
      }
    },
    "MHDECOD": {
      "codelist": null,
      "code": null,
      "label": "Dictionary-Derived Term",
      "igs": [
        "SDTMIG 3.3",
        "SDTMIG 3.4"
      ],
      "core": {
        "SDTMIG 3.3 Medical History": "Perm",
        "SDTMIG 3.4 Medical History": "Perm"
      }
    },
    "MHEVDTYP": {
      "codelist": "MHEDTTYP",
      "code": "C124301",
      "label": "Medical History Event Date Type",
      "igs": [
        "SDTMIG 3.3",
        "SDTMIG 3.4"
      ],
      "core": {
        "SDTMIG 3.3 Medical History": "Perm",
        "SDTMIG 3.4 Medical History": "Perm"
      }
    },
    "MHCAT": {
      "codelist": null,
      "code": null,
      "label": "Category for Medical History",
      "igs": [
        "SDTMIG 3.3",
        "SDTMIG 3.4"
      ],
      "core": {
        "SDTMIG 3.3 Medical History": "Perm",
        "SDTMIG 3.4 Medical History": "Perm"
      }
    },
    "MHSCAT": {
      "codelist": null,
      "code": null,
      "label": "Subcategory for Medical History",
      "igs": [
        "SDTMIG 3.3",
        "SDTMIG 3.4"
      ],
      "core": {
        "SDTMIG 3.3 Medical History": "Perm",
        "SDTMIG 3.4 Medical History": "Perm"
      }
    },
    "MHPRESP": {
      "codelist": "NY",
      "code": "C66742",
      "label": "Medical History Event Pre-Specified",
      "igs": [
        "SDTMIG 3.3",
        "SDTMIG 3.4"
      ],
      "core": {
        "SDTMIG 3.3 Medical History": "Perm",
        "SDTMIG 3.4 Medical History": "Perm"
      }
    },
    "MHOCCUR": {
      "codelist": "NY",
      "code": "C66742",
      "label": "Medical History Occurrence",
      "igs": [
        "SDTMIG 3.3",
        "SDTMIG 3.4"
      ],
      "core": {
        "SDTMIG 3.3 Medical History": "Perm",
        "SDTMIG 3.4 Medical History": "Perm"
      }
    },
    "MHSTAT": {
      "codelist": "ND",
      "code": "C66789",
      "label": "Completion Status",
      "igs": [
        "SDTMIG 3.3",
        "SDTMIG 3.4"
      ],
      "core": {
        "SDTMIG 3.3 Medical History": "Perm",
        "SDTMIG 3.4 Medical History": "Perm"
      }
    },
    "MHREASND": {
      "codelist": null,
      "code": null,
      "label": "Reason Medical History Not Collected",
      "igs": [
        "SDTMIG 3.3",
        "SDTMIG 3.4"
      ],
      "core": {
        "SDTMIG 3.3 Medical History": "Perm",
        "SDTMIG 3.4 Medical History": "Perm"
      }
    },
    "MHBODSYS": {
      "codelist": null,
      "code": null,
      "label": "Body System or Organ Class",
      "igs": [
        "SDTMIG 3.3",
        "SDTMIG 3.4"
      ],
      "core": {
        "SDTMIG 3.3 Medical History": "Perm",
        "SDTMIG 3.4 Medical History": "Perm"
      }
    },
    "MHDTC": {
      "codelist": null,
      "code": null,
      "label": "Date/Time of History Collection",
      "igs": [
        "SDTMIG 3.3",
        "SDTMIG 3.4"
      ],
      "core": {
        "SDTMIG 3.3 Medical History": "Perm",
        "SDTMIG 3.4 Medical History": "Perm"
      }
    },
    "MHSTDTC": {
      "codelist": null,
      "code": null,
      "label": "Start Date/Time of Medical History Event",
      "igs": [
        "SDTMIG 3.3",
        "SDTMIG 3.4"
      ],
      "core": {
        "SDTMIG 3.3 Medical History": "Perm",
        "SDTMIG 3.4 Medical History": "Perm"
      }
    },
    "MHENDTC": {
      "codelist": null,
      "code": null,
      "label": "End Date/Time of Medical History Event",
      "igs": [
        "SDTMIG 3.3",
        "SDTMIG 3.4"
      ],
      "core": {
        "SDTMIG 3.3 Medical History": "Perm",
        "SDTMIG 3.4 Medical History": "Perm"
      }
    },
    "MHDY": {
      "codelist": null,
      "code": null,
      "label": "Study Day of History Collection",
      "igs": [
        "SDTMIG 3.3",
        "SDTMIG 3.4"
      ],
      "core": {
        "SDTMIG 3.3 Medical History": "Perm",
        "SDTMIG 3.4 Medical History": "Perm"
      }
    },
    "MHENRF": {
      "codelist": "STENRF",
      "code": "C66728",
      "label": "End Relative to Reference Period",
      "igs": [
        "SDTMIG 3.3",
        "SDTMIG 3.4"
      ],
      "core": {
        "SDTMIG 3.3 Medical History": "Perm",
        "SDTMIG 3.4 Medical History": "Perm"
      }
    },
    "MHENRTPT": {
      "codelist": "STENRF",
      "code": "C66728",
      "label": "End Relative to Reference Time Point",
      "igs": [
        "SDTMIG 3.3",
        "SDTMIG 3.4"
      ],
      "core": {
        "SDTMIG 3.3 Medical History": "Perm",
        "SDTMIG 3.4 Medical History": "Perm"
      }
    },
    "MHENTPT": {
      "codelist": null,
      "code": null,
      "label": "End Reference Time Point",
      "igs": [
        "SDTMIG 3.3",
        "SDTMIG 3.4"
      ],
      "core": {
        "SDTMIG 3.3 Medical History": "Perm",
        "SDTMIG 3.4 Medical History": "Perm"
      }
    },
    "DASEQ": {
      "codelist": null,
      "code": null,
      "label": "Sequence Number",
      "igs": [
        "SDTMIG 3.3",
        "SDTMIG 3.4"
      ],
      "core": {
        "SDTMIG 3.3 Drug Accountability": "Req",
        "SDTMIG 3.4 Product Accountability": "Req"
      }
    },
    "DAGRPID": {
      "codelist": null,
      "code": null,
      "label": "Group ID",
      "igs": [
        "SDTMIG 3.3",
        "SDTMIG 3.4"
      ],
      "core": {
        "SDTMIG 3.3 Drug Accountability": "Perm",
        "SDTMIG 3.4 Product Accountability": "Perm"
      }
    },
    "DAREFID": {
      "codelist": null,
      "code": null,
      "label": "Reference ID",
      "igs": [
        "SDTMIG 3.3",
        "SDTMIG 3.4"
      ],
      "core": {
        "SDTMIG 3.3 Drug Accountability": "Perm",
        "SDTMIG 3.4 Product Accountability": "Perm"
      }
    },
    "DASPID": {
      "codelist": null,
      "code": null,
      "label": "Sponsor-Defined Identifier",
      "igs": [
        "SDTMIG 3.3",
        "SDTMIG 3.4"
      ],
      "core": {
        "SDTMIG 3.3 Drug Accountability": "Perm",
        "SDTMIG 3.4 Product Accountability": "Perm"
      }
    },
    "DATESTCD": {
      "codelist": "DATESTCD",
      "code": "C78732",
      "label": "Short Name of Accountability Assessment",
      "igs": [
        "SDTMIG 3.3",
        "SDTMIG 3.4"
      ],
      "core": {
        "SDTMIG 3.3 Drug Accountability": "Req",
        "SDTMIG 3.4 Product Accountability": "Req"
      }
    },
    "DATEST": {
      "codelist": "DATEST",
      "code": "C78731",
      "label": "Name of Accountability Assessment",
      "igs": [
        "SDTMIG 3.3",
        "SDTMIG 3.4"
      ],
      "core": {
        "SDTMIG 3.3 Drug Accountability": "Req",
        "SDTMIG 3.4 Product Accountability": "Req"
      }
    },
    "DACAT": {
      "codelist": null,
      "code": null,
      "label": "Category",
      "igs": [
        "SDTMIG 3.3",
        "SDTMIG 3.4"
      ],
      "core": {
        "SDTMIG 3.3 Drug Accountability": "Perm",
        "SDTMIG 3.4 Product Accountability": "Perm"
      }
    },
    "DASCAT": {
      "codelist": null,
      "code": null,
      "label": "Subcategory",
      "igs": [
        "SDTMIG 3.3",
        "SDTMIG 3.4"
      ],
      "core": {
        "SDTMIG 3.3 Drug Accountability": "Perm",
        "SDTMIG 3.4 Product Accountability": "Perm"
      }
    },
    "DAORRES": {
      "codelist": null,
      "code": null,
      "label": "Result or Finding in Original Units",
      "igs": [
        "SDTMIG 3.3",
        "SDTMIG 3.4"
      ],
      "core": {
        "SDTMIG 3.3 Drug Accountability": "Exp",
        "SDTMIG 3.4 Product Accountability": "Exp"
      }
    },
    "DAORRESU": {
      "codelist": "UNIT",
      "code": "C71620",
      "label": "Original Units",
      "igs": [
        "SDTMIG 3.3",
        "SDTMIG 3.4"
      ],
      "core": {
        "SDTMIG 3.3 Drug Accountability": "Perm",
        "SDTMIG 3.4 Product Accountability": "Perm"
      }
    },
    "DASTRESC": {
      "codelist": null,
      "code": null,
      "label": "Result or Finding in Standard Format",
      "igs": [
        "SDTMIG 3.3",
        "SDTMIG 3.4"
      ],
      "core": {
        "SDTMIG 3.3 Drug Accountability": "Exp",
        "SDTMIG 3.4 Product Accountability": "Exp"
      }
    },
    "DASTRESN": {
      "codelist": null,
      "code": null,
      "label": "Numeric Result/Finding in Standard Units",
      "igs": [
        "SDTMIG 3.3",
        "SDTMIG 3.4"
      ],
      "core": {
        "SDTMIG 3.3 Drug Accountability": "Perm",
        "SDTMIG 3.4 Product Accountability": "Perm"
      }
    },
    "DASTRESU": {
      "codelist": "UNIT",
      "code": "C71620",
      "label": "Standard Units",
      "igs": [
        "SDTMIG 3.3",
        "SDTMIG 3.4"
      ],
      "core": {
        "SDTMIG 3.3 Drug Accountability": "Perm",
        "SDTMIG 3.4 Product Accountability": "Perm"
      }
    },
    "DASTAT": {
      "codelist": "ND",
      "code": "C66789",
      "label": "Completion Status",
      "igs": [
        "SDTMIG 3.3",
        "SDTMIG 3.4"
      ],
      "core": {
        "SDTMIG 3.3 Drug Accountability": "Perm",
        "SDTMIG 3.4 Product Accountability": "Perm"
      }
    },
    "DAREASND": {
      "codelist": null,
      "code": null,
      "label": "Reason Not Done",
      "igs": [
        "SDTMIG 3.3",
        "SDTMIG 3.4"
      ],
      "core": {
        "SDTMIG 3.3 Drug Accountability": "Perm",
        "SDTMIG 3.4 Product Accountability": "Perm"
      }
    },
    "DADTC": {
      "codelist": null,
      "code": null,
      "label": "Date/Time of Collection",
      "igs": [
        "SDTMIG 3.3",
        "SDTMIG 3.4"
      ],
      "core": {
        "SDTMIG 3.3 Drug Accountability": "Exp",
        "SDTMIG 3.4 Product Accountability": "Exp"
      }
    },
    "DADY": {
      "codelist": null,
      "code": null,
      "label": "Study Day of Visit/Collection/Exam",
      "igs": [
        "SDTMIG 3.3",
        "SDTMIG 3.4"
      ],
      "core": {
        "SDTMIG 3.3 Drug Accountability": "Perm",
        "SDTMIG 3.4 Product Accountability": "Perm"
      }
    },
    "DDSEQ": {
      "codelist": null,
      "code": null,
      "label": "Sequence Number",
      "igs": [
        "SDTMIG 3.3",
        "SDTMIG 3.4"
      ],
      "core": {
        "SDTMIG 3.3 Death Details": "Req",
        "SDTMIG 3.4 Death Details": "Req"
      }
    },
    "DDTESTCD": {
      "codelist": "DTHDXCD",
      "code": "C116108",
      "label": "Death Detail Assessment Short Name",
      "igs": [
        "SDTMIG 3.3",
        "SDTMIG 3.4"
      ],
      "core": {
        "SDTMIG 3.3 Death Details": "Req",
        "SDTMIG 3.4 Death Details": "Req"
      }
    },
    "DDTEST": {
      "codelist": "DTHDX",
      "code": "C116107",
      "label": "Death Detail Assessment Name",
      "igs": [
        "SDTMIG 3.3",
        "SDTMIG 3.4"
      ],
      "core": {
        "SDTMIG 3.3 Death Details": "Req",
        "SDTMIG 3.4 Death Details": "Req"
      }
    },
    "DDORRES": {
      "codelist": null,
      "code": null,
      "label": "Result or Finding as Collected",
      "igs": [
        "SDTMIG 3.3",
        "SDTMIG 3.4"
      ],
      "core": {
        "SDTMIG 3.3 Death Details": "Exp",
        "SDTMIG 3.4 Death Details": "Exp"
      }
    },
    "DDSTRESC": {
      "codelist": null,
      "code": null,
      "label": "Character Result/Finding in Std Format",
      "igs": [
        "SDTMIG 3.3",
        "SDTMIG 3.4"
      ],
      "core": {
        "SDTMIG 3.3 Death Details": "Exp",
        "SDTMIG 3.4 Death Details": "Exp"
      }
    },
    "DDRESCAT": {
      "codelist": null,
      "code": null,
      "label": "Result Category",
      "igs": [
        "SDTMIG 3.3",
        "SDTMIG 3.4"
      ],
      "core": {
        "SDTMIG 3.3 Death Details": "Perm",
        "SDTMIG 3.4 Death Details": "Perm"
      }
    },
    "DDEVAL": {
      "codelist": "EVAL",
      "code": "C78735",
      "label": "Evaluator",
      "igs": [
        "SDTMIG 3.3",
        "SDTMIG 3.4"
      ],
      "core": {
        "SDTMIG 3.3 Death Details": "Perm",
        "SDTMIG 3.4 Death Details": "Perm"
      }
    },
    "DDDTC": {
      "codelist": null,
      "code": null,
      "label": "Date/Time of Collection",
      "igs": [
        "SDTMIG 3.3",
        "SDTMIG 3.4"
      ],
      "core": {
        "SDTMIG 3.3 Death Details": "Exp",
        "SDTMIG 3.4 Death Details": "Exp"
      }
    },
    "DDDY": {
      "codelist": null,
      "code": null,
      "label": "Study Day of Collection",
      "igs": [
        "SDTMIG 3.3",
        "SDTMIG 3.4"
      ],
      "core": {
        "SDTMIG 3.3 Death Details": "Perm",
        "SDTMIG 3.4 Death Details": "Perm"
      }
    },
    "SPDEVID": {
      "codelist": null,
      "code": null,
      "label": "Sponsor Device Identifier",
      "igs": [
        "SDTMIG 3.3",
        "SDTMIG 3.4"
      ],
      "core": {
        "SDTMIG 3.3 ECG Test Results": "Perm",
        "SDTMIG 3.3 Respiratory System Findings": "Perm",
        "SDTMIG 3.4 Adverse Events": "Perm",
        "SDTMIG 3.4 Biospecimen Events": "Perm",
        "SDTMIG 3.4 Biospecimen Findings": "Perm",
        "SDTMIG 3.4 ECG Test Results": "Perm",
        "SDTMIG 3.4 Genomics Findings": "Perm",
        "SDTMIG 3.4 Respiratory System Findings": "Perm"
      }
    },
    "EGSEQ": {
      "codelist": null,
      "code": null,
      "label": "Sequence Number",
      "igs": [
        "SDTMIG 3.3",
        "SDTMIG 3.4"
      ],
      "core": {
        "SDTMIG 3.3 ECG Test Results": "Req",
        "SDTMIG 3.4 ECG Test Results": "Req"
      }
    },
    "EGGRPID": {
      "codelist": null,
      "code": null,
      "label": "Group ID",
      "igs": [
        "SDTMIG 3.3",
        "SDTMIG 3.4"
      ],
      "core": {
        "SDTMIG 3.3 ECG Test Results": "Perm",
        "SDTMIG 3.4 ECG Test Results": "Perm"
      }
    },
    "EGREFID": {
      "codelist": null,
      "code": null,
      "label": "ECG Reference ID",
      "igs": [
        "SDTMIG 3.3",
        "SDTMIG 3.4"
      ],
      "core": {
        "SDTMIG 3.3 ECG Test Results": "Perm",
        "SDTMIG 3.4 ECG Test Results": "Perm"
      }
    },
    "EGSPID": {
      "codelist": null,
      "code": null,
      "label": "Sponsor-Defined Identifier",
      "igs": [
        "SDTMIG 3.3",
        "SDTMIG 3.4"
      ],
      "core": {
        "SDTMIG 3.3 ECG Test Results": "Perm",
        "SDTMIG 3.4 ECG Test Results": "Perm"
      }
    },
    "EGTESTCD": {
      "codelist": "EGTESTCD",
      "code": "C71153",
      "label": "ECG Test or Examination Short Name",
      "igs": [
        "SDTMIG 3.3",
        "SDTMIG 3.4"
      ],
      "core": {
        "SDTMIG 3.3 ECG Test Results": "Req",
        "SDTMIG 3.4 ECG Test Results": "Req"
      }
    },
    "EGTEST": {
      "codelist": "EGTEST",
      "code": "C71152",
      "label": "ECG Test or Examination Name",
      "igs": [
        "SDTMIG 3.3",
        "SDTMIG 3.4"
      ],
      "core": {
        "SDTMIG 3.3 ECG Test Results": "Req",
        "SDTMIG 3.4 ECG Test Results": "Req"
      }
    },
    "EGCAT": {
      "codelist": null,
      "code": null,
      "label": "Category for ECG",
      "igs": [
        "SDTMIG 3.3",
        "SDTMIG 3.4"
      ],
      "core": {
        "SDTMIG 3.3 ECG Test Results": "Perm",
        "SDTMIG 3.4 ECG Test Results": "Perm"
      }
    },
    "EGSCAT": {
      "codelist": null,
      "code": null,
      "label": "Subcategory for ECG",
      "igs": [
        "SDTMIG 3.3",
        "SDTMIG 3.4"
      ],
      "core": {
        "SDTMIG 3.3 ECG Test Results": "Perm",
        "SDTMIG 3.4 ECG Test Results": "Perm"
      }
    },
    "EGPOS": {
      "codelist": "POSITION",
      "code": "C71148",
      "label": "ECG Position of Subject",
      "igs": [
        "SDTMIG 3.3",
        "SDTMIG 3.4"
      ],
      "core": {
        "SDTMIG 3.3 ECG Test Results": "Perm",
        "SDTMIG 3.4 ECG Test Results": "Perm"
      }
    },
    "EGBEATNO": {
      "codelist": null,
      "code": null,
      "label": "ECG Beat Number",
      "igs": [
        "SDTMIG 3.3",
        "SDTMIG 3.4"
      ],
      "core": {
        "SDTMIG 3.3 ECG Test Results": "Perm",
        "SDTMIG 3.4 ECG Test Results": "Perm"
      }
    },
    "EGORRES": {
      "codelist": null,
      "code": null,
      "label": "Result or Finding in Original Units",
      "igs": [
        "SDTMIG 3.3",
        "SDTMIG 3.4"
      ],
      "core": {
        "SDTMIG 3.3 ECG Test Results": "Exp",
        "SDTMIG 3.4 ECG Test Results": "Exp"
      }
    },
    "EGORRESU": {
      "codelist": "UNIT",
      "code": "C71620",
      "label": "Original Units",
      "igs": [
        "SDTMIG 3.3",
        "SDTMIG 3.4"
      ],
      "core": {
        "SDTMIG 3.3 ECG Test Results": "Perm",
        "SDTMIG 3.4 ECG Test Results": "Perm"
      }
    },
    "EGSTRESC": {
      "codelist": "HESTRESC",
      "code": "C120522",
      "label": "Character Result/Finding in Std Format",
      "igs": [
        "SDTMIG 3.3",
        "SDTMIG 3.4"
      ],
      "core": {
        "SDTMIG 3.3 ECG Test Results": "Exp",
        "SDTMIG 3.4 ECG Test Results": "Exp"
      }
    },
    "EGSTRESN": {
      "codelist": null,
      "code": null,
      "label": "Numeric Result/Finding in Standard Units",
      "igs": [
        "SDTMIG 3.3",
        "SDTMIG 3.4"
      ],
      "core": {
        "SDTMIG 3.3 ECG Test Results": "Perm",
        "SDTMIG 3.4 ECG Test Results": "Perm"
      }
    },
    "EGSTRESU": {
      "codelist": "UNIT",
      "code": "C71620",
      "label": "Standard Units",
      "igs": [
        "SDTMIG 3.3",
        "SDTMIG 3.4"
      ],
      "core": {
        "SDTMIG 3.3 ECG Test Results": "Perm",
        "SDTMIG 3.4 ECG Test Results": "Perm"
      }
    },
    "EGSTAT": {
      "codelist": "ND",
      "code": "C66789",
      "label": "Completion Status",
      "igs": [
        "SDTMIG 3.3",
        "SDTMIG 3.4"
      ],
      "core": {
        "SDTMIG 3.3 ECG Test Results": "Perm",
        "SDTMIG 3.4 ECG Test Results": "Perm"
      }
    },
    "EGREASND": {
      "codelist": null,
      "code": null,
      "label": "Reason ECG Not Done",
      "igs": [
        "SDTMIG 3.3",
        "SDTMIG 3.4"
      ],
      "core": {
        "SDTMIG 3.3 ECG Test Results": "Perm",
        "SDTMIG 3.4 ECG Test Results": "Perm"
      }
    },
    "EGXFN": {
      "codelist": null,
      "code": null,
      "label": "ECG External File Path",
      "igs": [
        "SDTMIG 3.3",
        "SDTMIG 3.4"
      ],
      "core": {
        "SDTMIG 3.3 ECG Test Results": "Perm",
        "SDTMIG 3.4 ECG Test Results": "Perm"
      }
    },
    "EGNAM": {
      "codelist": null,
      "code": null,
      "label": "Vendor Name",
      "igs": [
        "SDTMIG 3.3",
        "SDTMIG 3.4"
      ],
      "core": {
        "SDTMIG 3.3 ECG Test Results": "Perm",
        "SDTMIG 3.4 ECG Test Results": "Perm"
      }
    },
    "EGMETHOD": {
      "codelist": "EGMETHOD",
      "code": "C71151",
      "label": "Method of Test or Examination",
      "igs": [
        "SDTMIG 3.3",
        "SDTMIG 3.4"
      ],
      "core": {
        "SDTMIG 3.3 ECG Test Results": "Perm",
        "SDTMIG 3.4 ECG Test Results": "Perm"
      }
    },
    "EGLEAD": {
      "codelist": "EGLEAD",
      "code": "C90013",
      "label": "Lead Location Used for Measurement",
      "igs": [
        "SDTMIG 3.3",
        "SDTMIG 3.4"
      ],
      "core": {
        "SDTMIG 3.3 ECG Test Results": "Perm",
        "SDTMIG 3.4 ECG Test Results": "Perm"
      }
    },
    "EGLOBXFL": {
      "codelist": "NY",
      "code": "C66742",
      "label": "Last Observation Before Exposure Flag",
      "igs": [
        "SDTMIG 3.3",
        "SDTMIG 3.4"
      ],
      "core": {
        "SDTMIG 3.3 ECG Test Results": "Exp",
        "SDTMIG 3.4 ECG Test Results": "Exp"
      }
    },
    "EGBLFL": {
      "codelist": "NY",
      "code": "C66742",
      "label": "Baseline Flag",
      "igs": [
        "SDTMIG 3.3",
        "SDTMIG 3.4"
      ],
      "core": {
        "SDTMIG 3.3 ECG Test Results": "Perm",
        "SDTMIG 3.4 ECG Test Results": "Perm"
      }
    },
    "EGDRVFL": {
      "codelist": "NY",
      "code": "C66742",
      "label": "Derived Flag",
      "igs": [
        "SDTMIG 3.3",
        "SDTMIG 3.4"
      ],
      "core": {
        "SDTMIG 3.3 ECG Test Results": "Perm",
        "SDTMIG 3.4 ECG Test Results": "Perm"
      }
    },
    "EGEVAL": {
      "codelist": "EVAL",
      "code": "C78735",
      "label": "Evaluator",
      "igs": [
        "SDTMIG 3.3",
        "SDTMIG 3.4"
      ],
      "core": {
        "SDTMIG 3.3 ECG Test Results": "Perm",
        "SDTMIG 3.4 ECG Test Results": "Perm"
      }
    },
    "EGEVALID": {
      "codelist": "MEDEVAL",
      "code": "C96777",
      "label": "Evaluator Identifier",
      "igs": [
        "SDTMIG 3.3",
        "SDTMIG 3.4"
      ],
      "core": {
        "SDTMIG 3.3 ECG Test Results": "Perm",
        "SDTMIG 3.4 ECG Test Results": "Perm"
      }
    },
    "EGREPNUM": {
      "codelist": null,
      "code": null,
      "label": "Repetition Number",
      "igs": [
        "SDTMIG 3.3",
        "SDTMIG 3.4"
      ],
      "core": {
        "SDTMIG 3.3 ECG Test Results": "Perm",
        "SDTMIG 3.4 ECG Test Results": "Perm"
      }
    },
    "EGDTC": {
      "codelist": null,
      "code": null,
      "label": "Date/Time of ECG",
      "igs": [
        "SDTMIG 3.3",
        "SDTMIG 3.4"
      ],
      "core": {
        "SDTMIG 3.3 ECG Test Results": "Exp",
        "SDTMIG 3.4 ECG Test Results": "Exp"
      }
    },
    "EGDY": {
      "codelist": null,
      "code": null,
      "label": "Study Day of ECG",
      "igs": [
        "SDTMIG 3.3",
        "SDTMIG 3.4"
      ],
      "core": {
        "SDTMIG 3.3 ECG Test Results": "Perm",
        "SDTMIG 3.4 ECG Test Results": "Perm"
      }
    },
    "EGTPT": {
      "codelist": null,
      "code": null,
      "label": "Planned Time Point Name",
      "igs": [
        "SDTMIG 3.3",
        "SDTMIG 3.4"
      ],
      "core": {
        "SDTMIG 3.3 ECG Test Results": "Perm",
        "SDTMIG 3.4 ECG Test Results": "Perm"
      }
    },
    "EGTPTNUM": {
      "codelist": null,
      "code": null,
      "label": "Planned Time Point Number",
      "igs": [
        "SDTMIG 3.3",
        "SDTMIG 3.4"
      ],
      "core": {
        "SDTMIG 3.3 ECG Test Results": "Perm",
        "SDTMIG 3.4 ECG Test Results": "Perm"
      }
    },
    "EGELTM": {
      "codelist": null,
      "code": null,
      "label": "Planned Elapsed Time from Time Point Ref",
      "igs": [
        "SDTMIG 3.3",
        "SDTMIG 3.4"
      ],
      "core": {
        "SDTMIG 3.3 ECG Test Results": "Perm",
        "SDTMIG 3.4 ECG Test Results": "Perm"
      }
    },
    "EGTPTREF": {
      "codelist": null,
      "code": null,
      "label": "Time Point Reference",
      "igs": [
        "SDTMIG 3.3",
        "SDTMIG 3.4"
      ],
      "core": {
        "SDTMIG 3.3 ECG Test Results": "Perm",
        "SDTMIG 3.4 ECG Test Results": "Perm"
      }
    },
    "EGRFTDTC": {
      "codelist": null,
      "code": null,
      "label": "Date/Time of Reference Time Point",
      "igs": [
        "SDTMIG 3.3",
        "SDTMIG 3.4"
      ],
      "core": {
        "SDTMIG 3.3 ECG Test Results": "Perm",
        "SDTMIG 3.4 ECG Test Results": "Perm"
      }
    },
    "IESEQ": {
      "codelist": null,
      "code": null,
      "label": "Sequence Number",
      "igs": [
        "SDTMIG 3.3",
        "SDTMIG 3.4"
      ],
      "core": {
        "SDTMIG 3.3 Inclusion/Exclusion Criteria Not Met": "Req",
        "SDTMIG 3.4 Inclusion/Exclusion Criteria Not Met": "Req"
      }
    },
    "IESPID": {
      "codelist": null,
      "code": null,
      "label": "Sponsor-Defined Identifier",
      "igs": [
        "SDTMIG 3.3",
        "SDTMIG 3.4"
      ],
      "core": {
        "SDTMIG 3.3 Inclusion/Exclusion Criteria Not Met": "Perm",
        "SDTMIG 3.4 Inclusion/Exclusion Criteria Not Met": "Perm"
      }
    },
    "IETESTCD": {
      "codelist": null,
      "code": null,
      "label": "Inclusion/Exclusion Criterion Short Name",
      "igs": [
        "SDTMIG 3.3",
        "SDTMIG 3.4"
      ],
      "core": {
        "SDTMIG 3.3 Inclusion/Exclusion Criteria Not Met": "Req",
        "SDTMIG 3.3 Trial Inclusion/Exclusion Criteria": "Req",
        "SDTMIG 3.4 Inclusion/Exclusion Criteria Not Met": "Req",
        "SDTMIG 3.4 Trial Inclusion/Exclusion Criteria": "Req"
      }
    },
    "IETEST": {
      "codelist": null,
      "code": null,
      "label": "Inclusion/Exclusion Criterion",
      "igs": [
        "SDTMIG 3.3",
        "SDTMIG 3.4"
      ],
      "core": {
        "SDTMIG 3.3 Inclusion/Exclusion Criteria Not Met": "Req",
        "SDTMIG 3.3 Trial Inclusion/Exclusion Criteria": "Req",
        "SDTMIG 3.4 Inclusion/Exclusion Criteria Not Met": "Req",
        "SDTMIG 3.4 Trial Inclusion/Exclusion Criteria": "Req"
      }
    },
    "IECAT": {
      "codelist": "IECAT",
      "code": "C66797",
      "label": "Inclusion/Exclusion Category",
      "igs": [
        "SDTMIG 3.3",
        "SDTMIG 3.4"
      ],
      "core": {
        "SDTMIG 3.3 Inclusion/Exclusion Criteria Not Met": "Req",
        "SDTMIG 3.3 Trial Inclusion/Exclusion Criteria": "Req",
        "SDTMIG 3.4 Inclusion/Exclusion Criteria Not Met": "Req",
        "SDTMIG 3.4 Trial Inclusion/Exclusion Criteria": "Req"
      }
    },
    "IESCAT": {
      "codelist": null,
      "code": null,
      "label": "Inclusion/Exclusion Subcategory",
      "igs": [
        "SDTMIG 3.3",
        "SDTMIG 3.4"
      ],
      "core": {
        "SDTMIG 3.3 Inclusion/Exclusion Criteria Not Met": "Perm",
        "SDTMIG 3.3 Trial Inclusion/Exclusion Criteria": "Perm",
        "SDTMIG 3.4 Inclusion/Exclusion Criteria Not Met": "Perm",
        "SDTMIG 3.4 Trial Inclusion/Exclusion Criteria": "Perm"
      }
    },
    "IEORRES": {
      "codelist": "NY",
      "code": "C66742",
      "label": "I/E Criterion Original Result",
      "igs": [
        "SDTMIG 3.3",
        "SDTMIG 3.4"
      ],
      "core": {
        "SDTMIG 3.3 Inclusion/Exclusion Criteria Not Met": "Req",
        "SDTMIG 3.4 Inclusion/Exclusion Criteria Not Met": "Req"
      }
    },
    "IESTRESC": {
      "codelist": "NY",
      "code": "C66742",
      "label": "I/E Criterion Result in Std Format",
      "igs": [
        "SDTMIG 3.3",
        "SDTMIG 3.4"
      ],
      "core": {
        "SDTMIG 3.3 Inclusion/Exclusion Criteria Not Met": "Req",
        "SDTMIG 3.4 Inclusion/Exclusion Criteria Not Met": "Req"
      }
    },
    "IEDTC": {
      "codelist": null,
      "code": null,
      "label": "Date/Time of Collection",
      "igs": [
        "SDTMIG 3.3",
        "SDTMIG 3.4"
      ],
      "core": {
        "SDTMIG 3.3 Inclusion/Exclusion Criteria Not Met": "Perm",
        "SDTMIG 3.4 Inclusion/Exclusion Criteria Not Met": "Perm"
      }
    },
    "IEDY": {
      "codelist": null,
      "code": null,
      "label": "Study Day of Collection",
      "igs": [
        "SDTMIG 3.3",
        "SDTMIG 3.4"
      ],
      "core": {
        "SDTMIG 3.3 Inclusion/Exclusion Criteria Not Met": "Perm",
        "SDTMIG 3.4 Inclusion/Exclusion Criteria Not Met": "Perm"
      }
    },
    "ISSEQ": {
      "codelist": null,
      "code": null,
      "label": "Sequence Number",
      "igs": [
        "SDTMIG 3.3",
        "SDTMIG 3.4"
      ],
      "core": {
        "SDTMIG 3.3 Immunogenicity Specimen Assessments": "Req",
        "SDTMIG 3.4 Immunogenicity Specimen Assessments": "Req"
      }
    },
    "ISGRPID": {
      "codelist": null,
      "code": null,
      "label": "Group ID",
      "igs": [
        "SDTMIG 3.3",
        "SDTMIG 3.4"
      ],
      "core": {
        "SDTMIG 3.3 Immunogenicity Specimen Assessments": "Perm",
        "SDTMIG 3.4 Immunogenicity Specimen Assessments": "Perm"
      }
    },
    "ISREFID": {
      "codelist": null,
      "code": null,
      "label": "Reference ID",
      "igs": [
        "SDTMIG 3.3",
        "SDTMIG 3.4"
      ],
      "core": {
        "SDTMIG 3.3 Immunogenicity Specimen Assessments": "Perm",
        "SDTMIG 3.4 Immunogenicity Specimen Assessments": "Perm"
      }
    },
    "ISSPID": {
      "codelist": null,
      "code": null,
      "label": "Sponsor-Defined Identifier",
      "igs": [
        "SDTMIG 3.3",
        "SDTMIG 3.4"
      ],
      "core": {
        "SDTMIG 3.3 Immunogenicity Specimen Assessments": "Perm",
        "SDTMIG 3.4 Immunogenicity Specimen Assessments": "Perm"
      }
    },
    "ISTESTCD": {
      "codelist": "ISTESTCD",
      "code": "C120525",
      "label": "Immunogenicity Test/Exam Short Name",
      "igs": [
        "SDTMIG 3.3",
        "SDTMIG 3.4"
      ],
      "core": {
        "SDTMIG 3.3 Immunogenicity Specimen Assessments": "Req",
        "SDTMIG 3.4 Immunogenicity Specimen Assessments": "Req"
      }
    },
    "ISTEST": {
      "codelist": "ISTEST",
      "code": "C120526",
      "label": "Immunogenicity Test or Examination Name",
      "igs": [
        "SDTMIG 3.3",
        "SDTMIG 3.4"
      ],
      "core": {
        "SDTMIG 3.3 Immunogenicity Specimen Assessments": "Req",
        "SDTMIG 3.4 Immunogenicity Specimen Assessments": "Req"
      }
    },
    "ISCAT": {
      "codelist": null,
      "code": null,
      "label": "Category for Immunogenicity Test",
      "igs": [
        "SDTMIG 3.3",
        "SDTMIG 3.4"
      ],
      "core": {
        "SDTMIG 3.3 Immunogenicity Specimen Assessments": "Perm",
        "SDTMIG 3.4 Immunogenicity Specimen Assessments": "Perm"
      }
    },
    "ISSCAT": {
      "codelist": null,
      "code": null,
      "label": "Subcategory for Immunogenicity Test",
      "igs": [
        "SDTMIG 3.3",
        "SDTMIG 3.4"
      ],
      "core": {
        "SDTMIG 3.3 Immunogenicity Specimen Assessments": "Perm",
        "SDTMIG 3.4 Immunogenicity Specimen Assessments": "Perm"
      }
    },
    "ISORRES": {
      "codelist": null,
      "code": null,
      "label": "Results or Findings in Original Units",
      "igs": [
        "SDTMIG 3.3",
        "SDTMIG 3.4"
      ],
      "core": {
        "SDTMIG 3.3 Immunogenicity Specimen Assessments": "Exp",
        "SDTMIG 3.4 Immunogenicity Specimen Assessments": "Exp"
      }
    },
    "ISORRESU": {
      "codelist": "UNIT",
      "code": "C71620",
      "label": "Original Units",
      "igs": [
        "SDTMIG 3.3",
        "SDTMIG 3.4"
      ],
      "core": {
        "SDTMIG 3.3 Immunogenicity Specimen Assessments": "Exp",
        "SDTMIG 3.4 Immunogenicity Specimen Assessments": "Exp"
      }
    },
    "ISSTRESC": {
      "codelist": null,
      "code": null,
      "label": "Character Result/Finding in Std Format",
      "igs": [
        "SDTMIG 3.3",
        "SDTMIG 3.4"
      ],
      "core": {
        "SDTMIG 3.3 Immunogenicity Specimen Assessments": "Exp",
        "SDTMIG 3.4 Immunogenicity Specimen Assessments": "Exp"
      }
    },
    "ISSTRESN": {
      "codelist": null,
      "code": null,
      "label": "Numeric Results/Findings in Std. Units",
      "igs": [
        "SDTMIG 3.3",
        "SDTMIG 3.4"
      ],
      "core": {
        "SDTMIG 3.3 Immunogenicity Specimen Assessments": "Exp",
        "SDTMIG 3.4 Immunogenicity Specimen Assessments": "Exp"
      }
    },
    "ISSTRESU": {
      "codelist": "UNIT",
      "code": "C71620",
      "label": "Standard Units",
      "igs": [
        "SDTMIG 3.3",
        "SDTMIG 3.4"
      ],
      "core": {
        "SDTMIG 3.3 Immunogenicity Specimen Assessments": "Exp",
        "SDTMIG 3.4 Immunogenicity Specimen Assessments": "Exp"
      }
    },
    "ISSTAT": {
      "codelist": "ND",
      "code": "C66789",
      "label": "Completion Status",
      "igs": [
        "SDTMIG 3.3",
        "SDTMIG 3.4"
      ],
      "core": {
        "SDTMIG 3.3 Immunogenicity Specimen Assessments": "Perm",
        "SDTMIG 3.4 Immunogenicity Specimen Assessments": "Perm"
      }
    },
    "ISREASND": {
      "codelist": null,
      "code": null,
      "label": "Reason Not Done",
      "igs": [
        "SDTMIG 3.3",
        "SDTMIG 3.4"
      ],
      "core": {
        "SDTMIG 3.3 Immunogenicity Specimen Assessments": "Perm",
        "SDTMIG 3.4 Immunogenicity Specimen Assessments": "Perm"
      }
    },
    "ISNAM": {
      "codelist": null,
      "code": null,
      "label": "Vendor Name",
      "igs": [
        "SDTMIG 3.3",
        "SDTMIG 3.4"
      ],
      "core": {
        "SDTMIG 3.3 Immunogenicity Specimen Assessments": "Perm",
        "SDTMIG 3.4 Immunogenicity Specimen Assessments": "Perm"
      }
    },
    "ISSPEC": {
      "codelist": "SPECTYPE",
      "code": "C78734",
      "label": "Specimen Type",
      "igs": [
        "SDTMIG 3.3",
        "SDTMIG 3.4"
      ],
      "core": {
        "SDTMIG 3.3 Immunogenicity Specimen Assessments": "Perm",
        "SDTMIG 3.4 Immunogenicity Specimen Assessments": "Perm"
      }
    },
    "ISMETHOD": {
      "codelist": "METHOD",
      "code": "C85492",
      "label": "Method of Test or Examination",
      "igs": [
        "SDTMIG 3.3",
        "SDTMIG 3.4"
      ],
      "core": {
        "SDTMIG 3.3 Immunogenicity Specimen Assessments": "Perm",
        "SDTMIG 3.4 Immunogenicity Specimen Assessments": "Perm"
      }
    },
    "ISLOBXFL": {
      "codelist": "NY",
      "code": "C66742",
      "label": "Last Observation Before Exposure Flag",
      "igs": [
        "SDTMIG 3.3",
        "SDTMIG 3.4"
      ],
      "core": {
        "SDTMIG 3.3 Immunogenicity Specimen Assessments": "Perm",
        "SDTMIG 3.4 Immunogenicity Specimen Assessments": "Perm"
      }
    },
    "ISBLFL": {
      "codelist": "NY",
      "code": "C66742",
      "label": "Baseline Flag",
      "igs": [
        "SDTMIG 3.3",
        "SDTMIG 3.4"
      ],
      "core": {
        "SDTMIG 3.3 Immunogenicity Specimen Assessments": "Perm",
        "SDTMIG 3.4 Immunogenicity Specimen Assessments": "Perm"
      }
    },
    "ISLLOQ": {
      "codelist": null,
      "code": null,
      "label": "Lower Limit of Quantitation",
      "igs": [
        "SDTMIG 3.3",
        "SDTMIG 3.4"
      ],
      "core": {
        "SDTMIG 3.3 Immunogenicity Specimen Assessments": "Exp",
        "SDTMIG 3.4 Immunogenicity Specimen Assessments": "Exp"
      }
    },
    "ISDTC": {
      "codelist": null,
      "code": null,
      "label": "Date/Time of Collection",
      "igs": [
        "SDTMIG 3.3",
        "SDTMIG 3.4"
      ],
      "core": {
        "SDTMIG 3.3 Immunogenicity Specimen Assessments": "Exp",
        "SDTMIG 3.4 Immunogenicity Specimen Assessments": "Exp"
      }
    },
    "ISDY": {
      "codelist": null,
      "code": null,
      "label": "Study Day of Visit/Collection/Exam",
      "igs": [
        "SDTMIG 3.3",
        "SDTMIG 3.4"
      ],
      "core": {
        "SDTMIG 3.3 Immunogenicity Specimen Assessments": "Perm",
