id: HRL-AD-0174
version: 1
status: Published
standard: ADaM
category: Format
sensitivity: Record
executability: Fully Executable
description: For SHIFTy, y must be the group (1 to 9) for a defined pairing of variables
  such as (BASECATy/AVALCATy), (BNRIND/ANRIND), (BTOXGR/ATOXGR), (BASE/AVAL) or (BASEC/AVALC).
scope:
  classes:
    - ADSL
    - BDS
    - OCCDS
  domains: []
check:
  all: []
outcome:
  message: 'Illegal variable name: y is not in [1-9] for SHIFTy(N)'
  severity: Error
provenance:
  p21_id: AD0192
  core_id: ~
  cg_ids: []
  fda_ids: []
  source_doc: ADaM-IG v1.0

