id: HRL-AD-0016
version: 1
status: Published
standard: ADaM
category: Presence
sensitivity: Record
executability: Partially Executable
description: 'For subject-level character population flag variables: N = no (not included),
  Y = yes (included).  Null values are not allowed.'
scope:
  classes:
    - ADSL
    - BDS
    - OCCDS
  domains: []
check:
  all:
    - name: '%Variables[COMPLFL,FASFL,ITTFL,PPROTFL,SAFFL,RANDFL,ENRLFL]%'
      operator: non_empty
outcome:
  message: '%Variable% subject-population flag value is null'
  severity: Error
provenance:
  p21_id: AD0019
  core_id: ~
  cg_ids: []
  fda_ids: []
  source_doc: ADaM-IG v1.1

