Core:
  Id: FDAV-SD0086
  Status: Reference
  Version: '1'
Description: All SUPPQUAL Domains records are associated with a single parent record
  and must have a unique combination of Study Identifier (STUDYID), Unique Subject
  Identifier (USUBJID), Identifying Variable (IDVAR), Identifying Variable Value (IDVARVAL)
  and Qualifier Variable Name (QNAM) variable value. For all SUPPQUAL domain record
  all The QNAM variable should be unique for each parent record.
Check:
  any:
    - all:
        - name: RDOMAIN
          operator: equal_to
          value: DM
          value_is_literal: yes
        - name: USUBJID
          operator: is_not_unique_set
          value: QNAM
    - all:
        - name: RDOMAIN
          operator: not_equal_to
          value: DM
          value_is_literal: yes
        - name: USUBJID
          operator: is_not_unique_set
          value:
            - IDVAR
            - IDVARVAL
            - QNAM
Outcome:
  Message: SUPPQUAL duplicate records
Rule Type: Record Data
Sensitivity: Record
Authorities:
  - Organization: CDISC
Source: FDA Validator Rules v1.6
Domains: SUPPQUAL
Standard: SDTM
Publisher ID: CG0411, 254
IG Versions:
  - SDTMIG 3.1.2
  - SDTMIG 3.1.3
  - SDTMIG 3.2
  - SDTMIG 3.3
  - SENDIG 3.0
  - SENDIG 3.1
  - SENDIG 3.1.1
  - SENDIG-AR 1.0
  - SENDIG-DART 1.1
CORE Reference: CORE-000203
Executability: Fully Executable
Scope:
  Classes:
    Include: ALL
  Domains:
    Include: SUPP--
  Use_Case: INDH, PROD

