Core:
  Id: FDAV-SD1119
  Status: Reference
  Version: '1'
Description: 'In the Comments (CO) domain, the following Identifier and Timing variables
  are Permissible and may be populated as appropriate when comments are not related
  to other domain records (i.e., RDOMAIN and IDVAR variable values are not populated):
  COGRPID, COREFID, COSPID, VISIT, VISITNUM, VISITDY, TAETORD, CODY, COTPT, COTPTNUM,
  COELTM, COTPTREF, CORFTDTC.'
Check:
  all:
    - name: IDVAR
      operator: non_empty
    - name: CODTC
      operator: non_empty
Outcome:
  Message: Inappropriate usage of variables in CO domain, when comment is a child
    record of another domain
Rule Type: Record Data
Sensitivity: Record
Authorities:
  - Organization: CDISC
Source: FDA Validator Rules v1.6
Domains: CO
Standard: SDTM
Publisher ID: CG0168
IG Versions:
  - SDTMIG 3.1.2
  - SDTMIG 3.1.3
  - SDTMIG 3.2
  - SDTMIG 3.3
  - SENDIG 3.0
  - SENDIG 3.1
  - SENDIG 3.1.1
  - SENDIG-AR 1.0
  - SENDIG-DART 1.1
CORE Reference: CORE-000187
Executability: Fully Executable
Scope:
  Classes:
    Include: SPECIAL PURPOSE
  Domains:
    Include: CO
  Use_Case: INDH

